sep=;
ACCELEROMETER X (m/s²);ACCELEROMETER Y (m/s²);ACCELEROMETER Z (m/s²);GRAVITY X (m/s²);GRAVITY Y (m/s²);GRAVITY Z (m/s²);LINEAR ACCELERATION X (m/s²);LINEAR ACCELERATION Y (m/s²);LINEAR ACCELERATION Z (m/s²);GYROSCOPE X (rad/s);GYROSCOPE Y (rad/s);GYROSCOPE Z (rad/s);LIGHT (lux);MAGNETIC FIELD X (μT);MAGNETIC FIELD Y (μT);MAGNETIC FIELD Z (μT);ORIENTATION Z (azimuth °);ORIENTATION X (pitch °);ORIENTATION Y (roll °);PROXIMITY (i);SOUND LEVEL (dB);LOCATION Latitude : ;LOCATION Longitude : ;LOCATION Altitude ( m);LOCATION Altitude-google ( m);LOCATION Speed ( Kmh);LOCATION Accuracy ( m);LOCATION ORIENTATION (°);Satellites in range;Time since start in ms ;YYYY-MO-DD HH-MI-SS_SSS
2.7103;4.5236;8.628;2.7592;4.3248;8.3578;-0.0772;0.106;0.0508;-0.091;-0.0251;0.005;2.4;-38.49;-14.48;-5.74;97.69;-26.44;-18.61;5.0;65.599;;;;NaN;;;;0 / 0;67;2021-03-12 21:37:37:445
2.795;4.2519;8.602;2.7049;4.182;8.4478;0.0368;-0.0407;-0.0172;-0.0189;0.0023;0.0165;2.4;-38.4;-13.99;-6.09;98.74;-25.24;-17.75;5.0;63.599;;;;NaN;;;;0 / 0;568;2021-03-12 21:37:37:946
2.6525;4.4207;8.7303;2.6249;4.2619;8.4331;0.017;-0.008;0.0023;0.0475;0.0085;0.0016;2.4;-38.68;-13.81;-6.21;98.24;-25.68;-17.18;5.0;58.671;;;;NaN;;;;0 / 0;1066;2021-03-12 21:37:38:444
2.7287;4.1892;8.6891;2.5523;4.2811;8.4456;-0.0366;0.0297;0.0163;0.0073;0.0269;-0.0884;2.4;-38.42;-14.41;-6.52;98.01;-25.93;-16.91;5.0;64.365;;;;NaN;;;;0 / 0;1567;2021-03-12 21:37:38:945
1.5705;6.2634;7.5979;1.6606;5.459;7.9758;-0.7376;0.3703;-0.9394;0.0195;-0.0961;-0.0435;1.5;-37.24;-23.09;-5.51;108.39;-33.83;-11.76;5.0;67.063;;;;NaN;;;;0 / 0;2066;2021-03-12 21:37:39:444
1.9394;4.2246;6.7283;1.7079;4.3607;8.6161;-0.1121;-0.0076;-1.7731;-1.724;0.4516;1.267;3.3;-35.74;-10.48;-12.77;90.3;-26.4;-11.21;5.0;61.627;;;;NaN;;;;0 / 0;2567;2021-03-12 21:37:39:945
1.4616;4.2879;8.5182;1.8543;3.9396;8.787;-0.3185;0.5029;-1.2599;0.1864;-0.5738;0.0527;2.7;-37.61;-17.8;-9.52;108.6;-19.36;-6.03;5.0;63.474;;;;NaN;;;;0 / 0;3069;2021-03-12 21:37:40:447
1.9137;4.4393;8.7645;1.813;4.2657;8.6422;0.0152;0.0678;-0.151;0.2365;0.0943;0.0413;2.7;-37.99;-18.95;-7.71;106.17;-25.78;-11.85;5.0;61.412;;;;NaN;;;;0 / 0;3567;2021-03-12 21:37:40:945
2.0835;3.9409;9.0304;1.9047;3.6452;8.9025;-0.2867;0.0685;0.9695;0.8003;-0.1403;-0.0019;2.7;-38.27;-17.47;-8.12;107.44;-21.82;-12.08;5.0;63.782;;;;NaN;;;;0 / 0;4068;2021-03-12 21:37:41:446
1.8757;4.2598;9.208;1.8757;4.2954;8.614;-0.0506;-0.1116;0.1889;0.3121;-0.0288;-8.0E-4;2.7;-38.47;-18.19;-7.26;105.71;-25.04;-12.1;5.0;53.682;;;;NaN;;;;0 / 0;4567;2021-03-12 21:37:41:945
2.4561;3.6123;8.4479;1.7393;3.5972;8.9558;0.3898;-0.2829;-0.716;1.3859;0.6002;0.2698;3.4;-37.71;-19.2;-9.28;108.31;-21.52;-10.99;5.0;54.939;;;;NaN;;;;0 / 0;5067;2021-03-12 21:37:42:445
-0.7922;5.3754;7.6718;-0.8363;4.5689;8.6369;-0.0847;0.3998;-1.4075;-0.3955;0.3253;-0.0116;3.6;-33.71;-25.81;-15.22;116.48;-27.77;5.53;5.0;58.394;;;;NaN;;;;0 / 0;5567;2021-03-12 21:37:42:945
-2.8235;0.4119;12.2663;-2.5606;2.7018;9.0727;1.8002;-2.0287;2.9314;0.8989;1.4956;0.7536;2.4;-31.13;-21.18;-22.74;123.29;-0.62;1.56;5.0;57.069;;;;NaN;;;;0 / 0;6067;2021-03-12 21:37:43:445
-0.7634;1.6911;8.9175;-0.5287;0.4275;9.7831;-1.171;-0.1724;-0.8313;-0.4427;-1.7421;-1.2452;2.7;-37.68;-16.79;-16.63;110.92;-8.7;13.46;5.0;61.464;;;;NaN;;;;0 / 0;6567;2021-03-12 21:37:43:945
2.4322;1.4516;6.9867;4.5578;0.345;8.6763;-0.8376;-0.084;1.9225;4.0786;2.1962;0.0317;2.4;-41.13;-28.78;3.83;126.69;-2.02;-27.71;5.0;68.741;;;;NaN;;;;0 / 0;7067;2021-03-12 21:37:44:445
1.4644;1.8444;9.6074;1.4891;3.0514;9.2001;-0.7481;-0.3246;1.1485;-0.8113;0.6276;1.7555;2.1;-40.99;-10.01;-12.82;91.09;-25.74;-8.69;5.0;66.583;;;;NaN;;;;0 / 0;7567;2021-03-12 21:37:44:945
0.0702;2.472;9.4253;-1.2119;4.3423;8.709;1.7788;-0.6074;-1.9819;0.1602;1.4758;1.8898;2.1;-13.96;6.46;-28.26;44.13;-26.8;5.8;5.0;60.317;;;;NaN;;;;0 / 0;8067;2021-03-12 21:37:45:445
-3.1254;2.5535;10.302;-2.3843;1.5488;9.3854;1.1036;2.2967;0.1648;0.8509;-1.2716;-0.3884;2.7;3.66;15.49;-18.22;1.79;-9.09;14.25;5.0;58.629;;;;NaN;;;;0 / 0;8567;2021-03-12 21:37:45:945
-3.0056;1.7055;11.2411;-3.3084;2.5349;8.8769;1.5518;-0.0517;-4.8621;-2.2735;-2.8808;1.7515;2.7;18.25;11.3;-6.45;312.85;-14.98;20.44;5.0;64.294;;;;NaN;;;;0 / 0;9068;2021-03-12 21:37:46:446
-0.6532;-1.1164;15.7302;0.5981;0.0121;9.7884;-1.7761;-1.2117;4.0919;-3.8232;-0.6744;2.007;2.7;23.49;-21.14;-9.74;228.31;-0.07;-3.5;5.0;66.018;;;;NaN;;;;0 / 0;9568;2021-03-12 21:37:46:946
1.038;-2.9513;12.664;-2.1836;0.3576;9.5538;2.3712;-1.7673;2.2453;2.7294;0.5489;2.6755;3.9;19.37;-29.09;-14.05;208.39;16.79;5.82;5.0;51.992;;;;NaN;;;;0 / 0;10069;2021-03-12 21:37:47:447
-2.493;2.5774;6.9963;-3.6369;1.7858;8.9305;3.5044;-1.2872;2.4357;3.8268;3.0923;1.0092;4.2;2.46;-46.76;-9.55;181.69;14.68;3.34;5.0;62.627;;;;NaN;;;;0 / 0;10568;2021-03-12 21:37:47:946
-2.3492;0.6084;8.3809;-1.2674;2.3199;9.4436;-0.4976;-1.0889;-1.569;-1.0559;-0.7264;0.9868;3.0;-8.05;-51.54;-5.46;169.28;-19.31;17.82;5.0;63.284;;;;NaN;;;;0 / 0;11067;2021-03-12 21:37:48:445
0.2906;-0.7954;14.3744;-1.6969;-1.5998;9.5253;-0.2117;1.4863;-1.1224;-4.5216;-1.1921;0.4705;4.6;2.0;-41.82;-24.86;176.96;9.39;10.1;5.0;61.124;;;;NaN;;;;0 / 0;11567;2021-03-12 21:37:48:945
-1.2856;1.1066;14.7001;-2.0926;-1.461;9.4687;-0.2699;2.4677;1.684;1.0954;-1.252;0.535;4.6;7.39;-45.9;-18.7;186.5;-11.13;6.77;5.0;62.469;;;;NaN;;;;0 / 0;12067;2021-03-12 21:37:49:445
-0.1693;1.8253;7.3891;-1.326;4.2366;8.7443;1.6762;-3.758;1.9286;2.0566;0.076;0.5553;3.9;-1.51;-54.41;0.74;178.03;-12.74;8.89;5.0;63.145;;;;NaN;;;;0 / 0;12567;2021-03-12 21:37:49:945
-1.6641;4.5274;7.8251;-1.4468;4.8345;8.4086;-0.5165;-0.2407;-1.4507;0.5444;-1.5697;-1.9592;2.7;22.24;-40.13;3.62;212.64;-29.54;9.76;5.0;56.97;;;;NaN;;;;0 / 0;13067;2021-03-12 21:37:50:445
-1.8318;-0.0049;14.748;-1.5213;2.7231;9.2974;0.2046;0.5164;-1.4222;-3.8712;-0.3977;-1.4658;2.7;29.16;-0.47;-7.36;276.68;-16.12;9.29;5.0;57.974;;;;NaN;;;;0 / 0;13567;2021-03-12 21:37:50:945
1.5554;0.8958;12.7885;-0.6038;-0.1781;9.7864;2.5628;-0.1789;6.0341;1.6818;-0.7035;0.2557;4.5;26.24;6.82;-6.41;287.28;-2.4;12.74;5.0;58.148;;;;NaN;;;;0 / 0;14067;2021-03-12 21:37:51:445
1.22;-1.0254;10.6087;-1.5561;-0.3602;9.6757;2.017;-0.2774;7.4682;5.9061;-0.865;-1.3668;4.2;24.06;10.3;-3.44;292.86;2.62;12.21;5.0;64.554;;;;NaN;;;;0 / 0;14567;2021-03-12 21:37:51:945
-3.6667;1.0875;12.6352;-0.9574;0.0851;9.7594;-0.6252;-2.6152;1.45;-1.6635;-1.3553;-1.789;2.7;-12.21;15.77;-26.65;41.95;-0.5;5.6;5.0;65.178;;;;NaN;;;;0 / 0;15068;2021-03-12 21:37:52:446
-2.8666;2.9416;6.0429;-2.6552;1.9863;9.229;-0.2681;-0.0571;-1.5329;0.2036;-1.9856;0.6028;2.4;-20.58;12.0;-26.11;60.26;-11.69;16.05;5.0;64.834;;;;NaN;;;;0 / 0;15568;2021-03-12 21:37:52:946
-0.7203;-1.9213;12.6927;-4.5117;-0.5498;8.6898;2.5493;0.4925;-0.9471;-6.1176;1.2905;0.6404;2.7;-9.22;13.71;-24.46;36.74;-19.87;15.49;5.0;62.941;;;;NaN;;;;0 / 0;16067;2021-03-12 21:37:53:445
-1.9516;0.3065;13.9;-2.3258;0.0175;9.5268;-0.424;0.9758;4.3111;-2.4851;0.2315;0.7614;2.7;-8.2;20.67;-15.64;29.87;-5.52;18.66;5.0;60.633;;;;NaN;;;;0 / 0;16567;2021-03-12 21:37:53:945
-0.7347;2.0457;6.6849;-0.753;3.0852;9.2782;0.0539;-1.4933;-0.8133;0.3166;1.0901;0.0323;2.7;-0.47;14.04;-24.05;5.33;-18.34;4.64;5.0;62.317;;;;NaN;;;;0 / 0;17067;2021-03-12 21:37:54:445
-3.638;-0.7571;10.7668;-1.9821;-1.3678;9.5064;-0.1958;1.1984;1.8574;-0.7003;0.6841;-0.7502;3.0;-20.77;18.7;-10.69;51.85;8.02;11.78;5.0;56.316;;;;NaN;;;;0 / 0;17567;2021-03-12 21:37:54:945
-0.6916;-0.0911;9.5163;-1.971;-0.9483;9.5596;1.3793;1.1455;-0.8162;-1.382;1.1545;-0.5893;3.9;-21.34;18.43;-9.09;52.02;5.55;11.65;5.0;49.21;;;;NaN;;;;0 / 0;18068;2021-03-12 21:37:55:446
-3.5757;-0.9822;12.8796;-1.0337;-1.9423;9.5566;-2.3439;0.8867;3.1582;-0.7976;-0.3242;2.1898;3.0;-19.52;17.48;-11.32;49.3;-6.98;5.18;5.0;48.86;;;;NaN;;;;0 / 0;18567;2021-03-12 21:37:55:945
-0.2891;-0.7954;9.8852;-2.1306;-0.7086;9.5461;1.2026;-0.7424;-2.0011;-3.1301;0.4848;0.7512;3.3;-0.9;21.64;-7.65;7.57;-12.16;15.24;5.0;59.748;;;;NaN;;;;0 / 0;19067;2021-03-12 21:37:56:445
-0.9071;-0.4792;10.4793;-0.2439;0.3116;9.7987;-0.242;0.509;1.3312;2.0722;-0.8058;-1.3519;3.3;-17.43;18.84;-11.9;41.78;-1.82;1.43;5.0;51.512;;;;NaN;;;;0 / 0;19567;2021-03-12 21:37:56:945
-2.354;2.8745;6.4836;-1.0901;2.9692;9.2826;2.2386;-1.1964;-0.3614;2.3141;-0.579;-0.4021;3.3;-27.18;7.99;-18.46;72.91;-4.5;8.75;5.0;57.388;;;;NaN;;;;0 / 0;20067;2021-03-12 21:37:57:445
-0.9311;1.5474;8.4527;-0.0398;0.4333;9.797;-0.4549;-0.2332;-0.2879;-0.0349;0.8053;1.1401;3.0;-27.77;13.23;-9.48;65.84;3.24;-1.94;5.0;61.241;;;;NaN;;;;0 / 0;20567;2021-03-12 21:37:57:945
1.656;3.3871;6.0525;0.1917;4.655;8.6293;1.3539;-1.5592;-2.4439;0.2127;-0.1622;-0.1227;2.1;-15.33;12.21;-23.42;43.14;-16.03;3.8;5.0;56.144;;;;NaN;;;;0 / 0;21066;2021-03-12 21:37:58:444
-0.3226;0.2011;10.7859;0.908;1.3506;9.6707;-0.7716;-0.9803;1.6391;-0.7135;0.2437;-2.4532;2.4;-40.4;-5.34;-8.84;94.7;-7.92;-5.36;5.0;60.395;;;;NaN;;;;0 / 0;21567;2021-03-12 21:37:58:945
0.2283;-1.1116;8.2419;-0.9687;-1.0503;9.702;0.243;-0.3336;-0.022;-0.3054;-0.5508;-0.9201;2.7;-38.18;-21.95;-15.07;118.67;-2.01;7.01;5.0;57.75;;;;NaN;;;;0 / 0;22067;2021-03-12 21:37:59:445
1.3638;-4.0149;9.3678;-0.2824;-1.9397;9.6088;0.4491;0.7542;2.708;1.2163;0.2013;-0.5993;2.8;-34.28;-27.72;-16.71;133.43;21.15;0.12;5.0;61.801;;;;NaN;;;;0 / 0;22568;2021-03-12 21:37:59:946
-0.6149;2.5966;10.235;-1.4148;2.1543;9.4619;1.0782;1.7717;0.5586;-0.4368;0.3396;-0.4252;2.4;-31.98;-36.53;-10.4;134.95;-20.04;9.24;5.0;58.463;;;;NaN;;;;0 / 0;23069;2021-03-12 21:38:00:447
-0.9503;4.5657;6.4789;-0.5766;4.5408;8.6729;0.0667;0.5588;-2.7044;-1.9626;-0.2926;-0.4759;1.5;-25.78;-43.83;0.87;147.27;-27.58;3.8;5.0;57.765;;;;NaN;;;;0 / 0;23567;2021-03-12 21:38:00:945
0.3145;1.7486;10.1487;-0.7922;1.01;9.7223;0.4195;0.7573;0.3918;0.7878;-0.6845;-0.5927;2.7;-19.18;-44.35;-11.28;154.82;-4.01;8.11;5.0;58.565;;;;NaN;;;;0 / 0;24068;2021-03-12 21:38:01:446
0.1421;-0.0193;10.1871;-0.3564;0.9961;9.7494;1.0823;0.1619;-0.3556;-0.9723;0.3768;-0.7681;3.0;-3.62;-46.11;-12.13;174.68;-12.56;-0.3;5.0;58.968;;;;NaN;;;;0 / 0;24567;2021-03-12 21:38:01:945
-1.918;3.7991;8.7833;-1.2069;1.9322;9.5384;1.0206;1.0687;-0.9124;1.7215;0.857;0.2707;2.7;1.64;-47.67;-4.49;182.14;-1.06;2.93;5.0;55.983;;;;NaN;;;;0 / 0;25067;2021-03-12 21:38:02:445
-0.3658;2.2948;7.2167;-0.6941;3.6787;9.064;0.634;-3.599;-0.3255;3.2678;-0.4342;0.5728;2.1;-14.77;-49.3;1.29;162.16;-22.03;4.38;5.0;64.547;;;;NaN;;;;0 / 0;25568;2021-03-12 21:38:02:946
-3.2356;-1.4278;11.2506;-0.7168;-2.0101;9.5716;1.5955;1.22;2.3251;-3.4535;-0.1822;-1.4445;4.2;-3.09;-40.87;-20.93;174.13;11.83;4.28;5.0;69.712;;;;NaN;;;;0 / 0;26067;2021-03-12 21:38:03:445
2.4944;-3.0998;10.647;0.1684;-0.4728;9.7938;0.0979;-0.7354;0.1832;-1.0664;-0.4138;1.5051;2.7;-4.63;-44.43;-18.91;171.4;-20.47;0.7;5.0;59.884;;;;NaN;;;;0 / 0;26567;2021-03-12 21:38:03:945
2.0632;5.2412;9.4588;0.672;4.8482;8.4978;0.7884;0.6074;-1.8732;-0.202;0.1867;0.7809;2.1;-18.05;-51.09;-1.71;156.61;-32.85;-1.88;5.0;57.446;;;;NaN;;;;0 / 0;27066;2021-03-12 21:38:04:444
-1.2808;2.1798;7.4897;-0.7919;3.666;9.0611;0.1695;-1.5025;-0.9107;2.2788;0.1666;-0.7525;3.0;-10.77;-52.27;-4.46;166.5;-21.95;4.99;5.0;52.151;;;;NaN;;;;0 / 0;27567;2021-03-12 21:38:04:945
-1.324;2.8745;7.7197;-0.6583;1.8249;9.6128;-0.5711;-1.1725;-0.4975;1.5878;-0.1086;-0.5176;3.0;-7.24;-50.95;-8.41;171.85;1.45;2.41;5.0;55.934;;;;NaN;;;;0 / 0;28067;2021-03-12 21:38:05:445
-1.1611;2.1798;9.2576;-0.2661;1.6689;9.6599;-0.5191;-0.6583;1.2355;1.6079;-0.5494;-1.4886;3.3;6.59;-48.14;-10.71;186.44;2.18;7.67;5.0;58.774;;;;NaN;;;;0 / 0;28567;2021-03-12 21:38:05:945
-0.3897;-0.2732;10.5128;-0.9531;-0.0914;9.7598;1.1347;0.1234;0.8185;0.1485;0.2714;0.4276;3.9;13.39;-43.73;-14.98;194.58;0.53;5.58;5.0;53.795;;;;NaN;;;;0 / 0;29067;2021-03-12 21:38:06:445
0.3385;0.0909;10.1535;-0.9529;1.0416;9.7045;1.5238;0.5594;3.4129;-1.0599;0.1532;1.8921;3.3;-0.65;-50.65;-13.13;177.37;-6.1;5.61;5.0;52.564;;;;NaN;;;;0 / 0;29567;2021-03-12 21:38:06:945
-1.2233;1.3653;8.6683;-1.437;1.8571;9.5214;-8.0E-4;-0.1423;0.7673;0.0932;-0.5949;-0.359;3.6;-2.79;-52.63;-7.0;175.95;-15.52;4.06;5.0;55.707;;;;NaN;;;;0 / 0;30067;2021-03-12 21:38:07:445
-1.645;1.6624;11.0494;-0.5081;2.3898;9.4974;-0.3008;-1.5239;0.1182;0.8067;-0.3502;-2.2783;3.0;25.61;-30.02;-8.09;221.96;-7.84;2.68;5.0;53.764;;;;NaN;;;;0 / 0;30567;2021-03-12 21:38:07:945
-0.6389;3.2769;8.9797;0.1353;2.3387;9.5227;-0.2287;0.9161;-0.7329;1.682;0.214;-1.0767;2.7;25.46;-4.91;-17.47;267.99;-13.8;-0.81;5.0;58.91;;;;NaN;;;;0 / 0;31067;2021-03-12 21:38:08:445
0.6787;0.8575;7.9497;-1.0849;0.0054;9.7465;2.1895;-1.5318;-0.4051;1.7761;-0.0437;-0.5375;4.8;26.25;3.07;-12.51;277.03;-0.03;6.35;5.0;67.032;;;;NaN;;;;0 / 0;31567;2021-03-12 21:38:08:945
-2.4163;2.3235;9.5019;-0.8264;1.928;9.5797;-1.1764;0.2806;-0.3643;-0.4337;0.0415;-1.3859;2.4;11.94;14.92;-20.57;331.69;-17.34;2.28;5.0;49.872;;;;NaN;;;;0 / 0;32067;2021-03-12 21:38:09:445
-0.5718;2.1798;11.4087;-0.5296;1.7981;9.6258;-0.7296;1.6805;-1.0666;-0.1583;-0.2335;-0.1995;2.4;-1.24;18.28;-23.02;7.9;-15.57;5.63;5.0;59.94;;;;NaN;;;;0 / 0;32567;2021-03-12 21:38:09:945
1.5985;1.7582;8.7594;-0.0261;2.0393;9.5922;0.9794;-0.3861;-1.2281;0.1044;-0.0953;-0.3427;3.0;-5.94;17.63;-20.32;15.61;-9.81;-0.26;5.0;50.608;;;;NaN;;;;0 / 0;33067;2021-03-12 21:38:10:445
-0.4472;2.4529;9.9667;0.4465;1.7572;9.6376;-0.6866;0.756;-1.5692;0.712;-0.151;-0.2083;3.0;-10.85;18.04;-19.06;25.49;-10.32;-2.65;5.0;60.284;;;;NaN;;;;0 / 0;33566;2021-03-12 21:38:10:944
0.6787;2.5631;9.0803;-0.4943;1.3727;9.6975;1.9167;-0.8279;0.3639;1.3452;0.3378;-0.1405;3.0;-0.47;17.08;-19.74;2.97;-8.05;2.92;5.0;52.883;;;;NaN;;;;0 / 0;34067;2021-03-12 21:38:11:445
-1.2042;1.4659;7.7964;-0.4388;0.577;9.7798;-0.7393;-0.7811;1.2808;1.2102;0.4494;-0.427;3.0;-1.54;20.29;-14.99;8.87;-2.69;4.71;5.0;53.528;;;;NaN;;;;0 / 0;34568;2021-03-12 21:38:11:946
-0.543;1.624;8.8456;-0.2157;0.3958;9.7963;-0.2226;0.9647;1.6831;-0.081;-0.2657;-0.7679;2.7;-13.28;19.69;-15.63;32.92;-2.31;1.26;5.0;58.54;;;;NaN;;;;0 / 0;35067;2021-03-12 21:38:12:445
1.0044;1.097;11.3944;-0.3831;1.133;9.7335;0.4615;0.6341;-0.8849;-0.1986;0.1005;0.784;2.7;-16.5;16.39;-16.48;44.92;-6.63;2.25;5.0;59.844;;;;NaN;;;;0 / 0;35573;2021-03-12 21:38:12:951
1.1578;0.3017;13.0856;-0.4097;0.6729;9.775;0.5773;1.1924;0.5984;0.07;-0.2581;1.4037;3.0;-6.9;19.23;-13.93;20.86;-3.93;2.4;5.0;50.41;;;;NaN;;;;0 / 0;36068;2021-03-12 21:38:13:446
-0.8497;2.702;8.9414;-0.012;2.62;9.4502;0.3329;-0.0173;1.1117;-0.4972;-0.4499;0.3375;3.0;3.97;13.05;-20.34;350.51;-20.52;2.24;5.0;52.103;;;;NaN;;;;0 / 0;36568;2021-03-12 21:38:13:946
-1.0269;3.0997;9.2672;-0.1087;3.0062;9.3339;-0.1576;1.2706;0.1993;-0.7054;-0.1725;-0.5664;3.0;-6.98;16.38;-18.45;19.18;-17.85;0.67;5.0;44.726;;;;NaN;;;;0 / 0;37067;2021-03-12 21:38:14:445
2.3411;-0.5031;9.1714;0.0739;0.553;9.7908;0.066;-0.9088;-0.9646;1.1211;-0.1544;1.292;2.7;-5.86;18.66;-14.64;16.54;-3.23;-0.43;5.0;55.021;;;;NaN;;;;0 / 0;37566;2021-03-12 21:38:14:944
1.0044;3.1859;9.6313;0.667;1.8979;9.5981;0.3592;1.2912;0.0076;-0.7206;0.0409;-0.1626;2.4;-3.21;18.55;-14.76;4.65;-13.42;-4.58;5.0;53.085;;;;NaN;;;;0 / 0;38066;2021-03-12 21:38:15:444
2.4801;3.0565;9.1043;0.8226;3.3907;9.165;-0.3035;-1.3698;1.033;0.1891;-0.8554;0.4337;2.1;6.7;14.22;-17.88;339.11;-19.21;-0.93;5.0;39.87;;;;NaN;;;;0 / 0;38567;2021-03-12 21:38:15:945
2.0585;2.726;12.1226;0.2917;3.5878;9.1221;0.8444;0.6322;2.4913;-0.4852;-0.7358;-1.4752;2.4;-5.81;17.02;-19.45;11.5;-20.97;-4.06;5.0;45.272;;;;NaN;;;;0 / 0;39066;2021-03-12 21:38:16:444
-1.8222;0.7617;8.9749;0.2976;1.9783;9.6004;0.0974;-2.4967;1.0537;-1.2291;-0.2849;-2.8901;2.4;-43.42;-12.84;-9.69;103.76;-11.64;-1.78;5.0;48.332;;;;NaN;;;;0 / 0;39567;2021-03-12 21:38:16:945
0.5589;2.0648;8.1078;0.2382;2.8102;9.3924;1.7072;0.4986;-1.0466;-0.7833;-0.3484;-1.5837;2.1;-38.7;-32.11;-3.37;127.18;-16.65;-1.45;5.0;47.439;;;;NaN;;;;0 / 0;40067;2021-03-12 21:38:17:445
1.862;2.8697;7.9928;-0.9368;2.6117;9.406;3.2035;-0.1207;-1.3143;0.6727;0.6651;1.3946;2.4;-38.82;-28.04;-10.63;123.34;-10.01;1.64;5.0;58.073;;;;NaN;;;;0 / 0;40567;2021-03-12 21:38:17:945
-3.3697;-2.3908;10.7141;0.0837;-0.1626;9.8049;-0.2581;-1.849;-0.7778;-1.0368;-0.4722;-2.5467;3.6;-23.0;-41.52;-11.62;150.22;-6.6;0.47;5.0;61.265;;;;NaN;;;;0 / 0;41067;2021-03-12 21:38:18:445
-0.222;1.9546;10.762;-1.301;0.07;9.7197;-0.1041;1.9326;-0.1822;-0.2862;-0.1169;0.5593;3.3;-12.41;-44.93;-13.53;162.98;-0.41;7.62;5.0;59.699;;;;NaN;;;;0 / 0;41567;2021-03-12 21:38:18:945
-0.0783;0.8144;7.2837;-0.6142;1.2085;9.7125;0.8665;-1.9271;0.5582;0.4662;0.6702;-0.1733;3.0;-12.48;-46.73;-9.85;164.5;-3.45;5.22;5.0;54.497;;;;NaN;;;;0 / 0;42068;2021-03-12 21:38:19:446
-1.827;0.2874;9.8517;-1.9183;0.2846;9.613;-0.4482;2.2903;0.8344;-0.3059;-0.0882;0.6744;4.0;-12.8;-44.04;-15.69;159.99;-1.66;11.29;5.0;52.362;;;;NaN;;;;0 / 0;42567;2021-03-12 21:38:19:945
-2.4403;2.5487;7.1161;-2.3084;3.0937;9.015;-0.1972;-0.9672;-2.1152;0.955;1.0185;0.2347;3.3;-20.87;-44.71;-10.42;152.41;-12.02;8.71;5.0;45.913;;;;NaN;;;;0 / 0;43067;2021-03-12 21:38:20:445
-0.6341;-1.0876;10.9057;-0.5547;-0.2801;9.7869;-0.1453;-0.9123;1.675;0.9013;-0.8255;-1.5507;3.6;-12.06;-44.87;-17.38;164.1;1.64;3.24;5.0;50.864;;;;NaN;;;;0 / 0;43567;2021-03-12 21:38:20:945
0.0223;3.6985;10.7811;0.145;2.2663;9.5401;0.0435;1.7247;0.7809;-0.8182;0.0909;0.0789;2.4;0.35;-49.51;-5.1;180.18;-22.21;-1.56;5.0;43.758;;;;NaN;;;;0 / 0;44068;2021-03-12 21:38:21:446
-0.0112;2.9128;9.066;-1.0219;4.3689;8.72;0.8615;-1.1874;-1.4177;0.5044;0.751;0.9248;3.0;-12.21;-51.21;-0.2;165.81;-22.93;4.38;5.0;51.444;;;;NaN;;;;0 / 0;44567;2021-03-12 21:38:21:945
-0.3179;2.5152;11.7058;-1.6492;2.6133;9.3071;-0.1268;1.2279;-0.4284;-0.71;-0.6069;-1.4067;3.6;0.19;-49.05;-6.36;178.7;-20.48;9.55;5.0;49.422;;;;NaN;;;;0 / 0;45068;2021-03-12 21:38:22:446
-2.033;-0.7235;10.9009;-1.0132;-0.2839;9.75;-0.9384;-1.122;-0.4887;1.0434;0.3476;-1.626;4.9;25.66;-26.74;-7.01;222.67;1.66;5.93;5.0;51.642;;;;NaN;;;;0 / 0;45567;2021-03-12 21:38:22:945
-3.6955;0.2874;10.877;-1.4095;-0.1648;9.7034;-0.9661;1.8352;0.9399;0.0464;0.5875;1.6507;5.8;25.38;-25.51;-8.96;223.3;-7.28;11.76;5.0;62.813;;;;NaN;;;;0 / 0;46066;2021-03-12 21:38:23:444
-1.4964;1.2168;8.0599;-1.2809;3.8199;8.9408;-1.0146;-2.389;1.0358;-0.7267;-0.3625;1.8261;4.5;4.88;-48.81;3.56;187.45;-25.85;15.98;5.0;62.612;;;;NaN;;;;0 / 0;46568;2021-03-12 21:38:23:946
-2.2199;3.4638;6.2968;-1.8523;2.2111;9.3728;-0.8368;1.2592;-1.4779;-1.8989;0.3155;1.2956;4.8;-18.15;-50.05;-7.5;156.24;-26.71;12.9;5.0;62.152;;;;NaN;;;;0 / 0;47068;2021-03-12 21:38:24:446
-1.8845;1.1066;6.6465;-1.7196;1.2118;9.5784;-0.8111;-1.6179;2.1684;0.5102;1.339;2.4976;2.1;-38.06;-21.79;-23.25;115.6;-7.1;10.18;5.0;63.739;;;;NaN;;;;0 / 0;47567;2021-03-12 21:38:24:945
-0.8592;2.5487;9.0276;-1.187;0.6621;9.712;-0.0308;1.0555;1.8272;0.8607;0.2974;0.9464;2.5;-31.91;3.01;-24.35;82.87;-3.87;6.97;5.0;51.391;;;;NaN;;;;0 / 0;48067;2021-03-12 21:38:25:445
-0.4999;2.1271;10.9392;-1.0729;0.4184;9.7388;0.5132;1.7359;1.2193;0.1784;0.3896;-0.1058;2.7;-26.87;12.74;-19.72;64.8;-0.97;3.84;5.0;53.461;;;;NaN;;;;0 / 0;48567;2021-03-12 21:38:25:945
-2.4211;0.0574;8.7258;-2.4589;-0.0734;9.4931;-0.2229;-0.0479;-0.7635;0.8153;0.4446;0.7719;2.7;-21.83;15.33;-19.07;63.03;7.64;12.66;5.0;59.966;;;;NaN;;;;0 / 0;49067;2021-03-12 21:38:26:445
-2.239;-2.9082;10.326;-3.9083;-2.62;8.6041;2.2438;-0.6099;2.9932;1.9965;-0.9026;0.6511;2.7;-0.33;23.16;-8.27;9.29;15.5;24.43;5.0;54.35;;;;NaN;;;;0 / 0;49567;2021-03-12 21:38:26:945
-2.8762;0.6419;11.0446;-2.3812;0.3633;9.5062;-0.6789;0.707;1.4403;-0.0054;-0.0107;-0.5544;2.7;-3.69;18.43;-19.72;18.09;-17.3;10.13;5.0;42.516;;;;NaN;;;;0 / 0;50067;2021-03-12 21:38:27:445
-0.7922;1.1018;9.133;-1.344;2.1692;9.4688;0.4699;0.4755;0.0413;0.4006;0.5124;-0.6575;2.4;-15.59;12.45;-23.52;49.41;-12.78;8.08;5.0;57.128;;;;NaN;;;;0 / 0;50567;2021-03-12 21:38:27:945
-2.5217;2.702;7.9832;-2.4501;-0.0211;9.4956;0.3051;-0.086;1.3663;1.8231;-0.3879;0.1068;2.7;-13.34;17.15;-17.85;45.19;0.12;14.47;5.0;44.12;;;;NaN;;;;0 / 0;51067;2021-03-12 21:38:28:445
-0.8592;1.0683;8.8504;-0.9722;1.9134;9.5689;0.2398;-0.9727;-0.804;0.3167;-0.2759;0.2892;3.0;-0.41;16.75;-18.12;6.67;-9.8;7.39;5.0;51.511;;;;NaN;;;;0 / 0;51566;2021-03-12 21:38:28:944
-0.3226;1.672;9.9331;-0.5474;0.2193;9.7889;-0.4034;1.2341;1.0216;-0.7592;-0.3473;-0.9011;3.0;-4.36;18.34;-16.41;15.23;-6.56;4.9;5.0;54.762;;;;NaN;;;;0 / 0;52067;2021-03-12 21:38:29:445
0.6212;0.0766;9.2432;-0.3931;0.7209;9.7722;0.0908;-0.6177;1.6964;-0.1536;-0.2303;-0.4377;3.0;-16.08;17.44;-14.45;41.81;-5.54;1.29;5.0;57.42;;;;NaN;;;;0 / 0;52568;2021-03-12 21:38:29:946
-0.3226;2.3906;9.89;-0.6624;2.4722;9.4668;-0.5879;1.1276;-0.3013;-1.1312;-0.2074;0.1785;2.7;-17.41;13.75;-18.56;44.57;-17.78;4.48;5.0;54.182;;;;NaN;;;;0 / 0;53067;2021-03-12 21:38:30:445
-0.1837;1.8923;9.775;-0.7787;1.7738;9.6134;0.9443;0.9506;0.8933;0.1732;0.1584;0.0245;2.4;-7.35;18.31;-15.28;21.96;-10.42;4.63;5.0;50.607;;;;NaN;;;;0 / 0;53567;2021-03-12 21:38:30:945
-1.1994;2.3092;8.2276;-0.2882;2.0914;9.5767;-0.1647;-1.0294;0.8793;-0.0952;0.7828;-0.1924;2.4;-7.73;18.36;-15.98;22.7;-13.15;2.95;5.0;44.295;;;;NaN;;;;0 / 0;54067;2021-03-12 21:38:31:445
-0.7011;0.8479;10.3116;-0.022;1.0089;9.7546;-0.9697;0.086;0.5041;-0.0129;-0.0517;-1.1974;2.4;-19.34;18.01;-11.56;45.26;-5.75;1.18;5.0;53.837;;;;NaN;;;;0 / 0;54567;2021-03-12 21:38:31:945
-0.2125;1.0539;9.1857;-0.8467;0.5466;9.7547;0.9313;0.2332;-0.1508;0.1298;0.071;0.8452;3.0;-17.48;19.31;-9.98;42.66;-2.24;4.94;5.0;43.645;;;;NaN;;;;0 / 0;55067;2021-03-12 21:38:32:445
0.0031;0.9341;11.2459;-1.0132;0.413;9.7454;1.0857;0.4602;0.8677;0.1746;0.0607;0.4486;3.9;-5.29;22.06;-7.14;14.36;-2.41;5.94;5.0;57.157;;;;NaN;;;;0 / 0;55567;2021-03-12 21:38:32:945
0.3193;0.4742;10.1439;0.0;2.4839;9.4869;0.2986;-2.1772;0.6461;0.5091;-0.851;-1.3947;2.7;-14.77;16.89;-14.05;36.88;-14.67;0.0;5.0;54.85;;;;NaN;;;;0 / 0;56067;2021-03-12 21:38:33:445
-0.9263;1.0683;10.4889;-0.4026;1.8233;9.6272;-0.5108;-0.7165;1.2247;0.3506;0.2808;-2.0726;2.4;-40.82;-8.62;-13.78;98.39;-13.14;3.54;5.0;54.196;;;;NaN;;;;0 / 0;56567;2021-03-12 21:38:33:945
0.0319;1.5713;10.4506;-1.0416;0.2654;9.7476;0.8263;1.1094;0.5121;0.0826;-0.1822;-0.6694;2.4;-36.03;-29.23;-11.12;127.47;-3.99;8.68;5.0;66.104;;;;NaN;;;;0 / 0;57067;2021-03-12 21:38:34:445
0.487;1.145;10.3931;-0.705;0.986;9.7315;0.6523;0.0926;0.3697;0.2937;-0.1741;-0.1865;2.4;-29.72;-39.78;-8.07;142.12;-5.77;4.14;5.0;62.693;;;;NaN;;;;0 / 0;57567;2021-03-12 21:38:34:945
-1.094;1.7055;9.6026;-0.6962;1.8458;9.6062;-0.2797;-0.1329;-0.0084;-0.1652;-0.1166;-0.2015;2.4;-24.76;-43.82;-5.81;149.11;-10.94;4.25;5.0;64.506;;;;NaN;;;;0 / 0;58066;2021-03-12 21:38:35:444
-1.2329;1.6001;10.0912;-1.0497;0.7103;9.7244;-0.8059;0.8317;0.4754;-0.4568;0.1889;-0.0602;2.2;-20.26;-44.42;-9.51;154.03;-6.92;4.96;5.0;55.522;;;;NaN;;;;0 / 0;58567;2021-03-12 21:38:35:945
-0.5335;0.6898;10.3883;-0.6509;1.224;9.7082;-0.3489;-0.1919;0.0108;0.1902;-0.2572;-0.3621;2.4;-15.99;-47.04;-7.17;160.41;-5.88;3.77;5.0;60.565;;;;NaN;;;;0 / 0;59067;2021-03-12 21:38:36:445
-0.1933;1.1977;9.8756;-0.6303;0.8218;9.7518;0.4079;0.1929;-0.0151;-0.1793;0.0296;-0.2127;2.4;-12.73;-47.15;-8.84;163.53;-6.03;3.77;5.0;48.022;;;;NaN;;;;0 / 0;59567;2021-03-12 21:38:36:945
-1.3144;1.0491;10.4745;-0.6857;0.7676;9.7525;0.6012;0.6149;1.0956;0.0634;0.08;-0.3613;3.0;-11.81;-47.46;-8.8;164.91;-4.05;3.19;5.0;62.428;;;;NaN;;;;0 / 0;60067;2021-03-12 21:38:37:445
-3.9877;1.2312;9.1905;-3.358;1.5041;9.0902;-0.2342;-0.0858;0.1816;-0.3538;0.2653;-0.1357;3.0;-10.7;-47.42;-8.05;163.82;-9.04;24.89;5.0;47.83;;;;NaN;;;;0 / 0;60567;2021-03-12 21:38:37:945
-3.2499;-0.5127;9.569;-2.9599;-1.0649;9.2885;-0.2479;0.4511;0.3467;0.0181;-0.5817;-0.3581;4.2;-15.26;-41.48;-17.86;151.95;-1.53;28.12;5.0;57.743;;;;NaN;;;;0 / 0;61066;2021-03-12 21:38:38:444
-2.675;2.3858;8.9079;-2.1304;2.0881;9.3419;-0.5552;0.4007;-0.673;-0.8709;-0.0093;0.2527;2.7;-14.37;-46.65;-6.34;161.54;-14.17;13.1;5.0;49.979;;;;NaN;;;;0 / 0;61567;2021-03-12 21:38:38:945
-2.0905;1.5666;9.4684;-1.9681;1.2485;9.5257;-0.052;0.0529;0.1322;0.4154;-0.0257;-0.0232;3.0;-17.15;-45.35;-8.8;157.37;-4.94;12.01;5.0;44.144;;;;NaN;;;;0 / 0;62067;2021-03-12 21:38:39:445
-2.378;1.1162;8.9893;-2.448;1.3867;9.3944;0.1174;-0.2728;5.0E-4;0.0357;0.1566;0.1104;3.0;-14.68;-46.12;-9.02;159.52;-8.28;13.87;5.0;52.57;;;;NaN;;;;0 / 0;62567;2021-03-12 21:38:39:945
-1.4102;1.4228;9.7798;-2.1235;1.3991;9.4712;0.7521;0.0992;0.3312;-0.014;-0.0847;-0.3216;3.0;-14.5;-46.9;-9.26;159.96;-8.5;13.36;5.0;44.572;;;;NaN;;;;0 / 0;63067;2021-03-12 21:38:40:445
-1.8031;1.1833;9.6553;-1.8119;1.1133;9.5733;0.0877;0.0263;0.1178;-0.0852;-0.0411;0.1399;3.0;-12.73;-47.28;-9.9;162.23;-6.76;11.1;5.0;46.098;;;;NaN;;;;0 / 0;63567;2021-03-12 21:38:40:945
-1.7456;0.7617;9.7271;-1.6219;0.8003;9.6384;0.1257;0.137;0.2215;-0.2745;0.0466;-0.0481;3.3;-13.72;-45.64;-12.32;160.68;-4.68;9.55;5.0;33.892;;;;NaN;;;;0 / 0;64067;2021-03-12 21:38:41:445
-1.8989;0.5125;9.4397;-1.9564;0.5751;9.5923;-0.1115;-0.0304;-0.0758;-0.0785;0.0414;0.2403;3.3;-16.43;-44.05;-12.36;157.41;-3.6;11.33;5.0;42.935;;;;NaN;;;;0 / 0;64567;2021-03-12 21:38:41:945
-2.3396;0.5509;9.8661;-2.2286;0.1399;9.5491;-0.1517;0.3277;0.3376;0.1829;-0.0379;-0.1354;3.6;-17.45;-42.71;-14.4;155.16;-1.05;13.64;5.0;61.799;;;;NaN;;;;0 / 0;65067;2021-03-12 21:38:42:445
-1.5539;1.1737;10.0385;-1.6247;0.8617;9.6327;0.1117;0.2437;0.3007;0.0067;-0.1075;-0.478;3.3;-15.99;-44.83;-11.44;157.82;-6.8;11.28;5.0;55.977;;;;NaN;;;;0 / 0;65568;2021-03-12 21:38:42:946
-2.0713;0.9198;9.708;-1.6047;1.3121;9.5851;-0.1686;0.1677;-0.1896;0.22;-0.04;-0.052;3.3;-10.77;-46.56;-9.1;164.85;-6.1;10.52;5.0;67.896;;;;NaN;;;;0 / 0;66066;2021-03-12 21:38:43:444
-0.7826;1.2599;10.2972;-1.0532;1.7945;9.5834;0.5269;-0.0593;-0.3306;-0.4561;-0.1563;0.1205;3.0;-16.78;-45.46;-9.75;157.01;-10.23;7.95;5.0;62.226;;;;NaN;;;;0 / 0;66569;2021-03-12 21:38:43:947
-1.2281;1.2551;10.8674;-1.6094;1.3144;9.584;-0.1014;0.7715;0.5685;-0.5234;-0.1395;0.3491;3.3;-17.35;-44.13;-12.83;155.42;-10.77;9.5;5.0;67.692;;;;NaN;;;;0 / 0;67067;2021-03-12 21:38:44:445
-1.5156;1.0587;9.5067;-1.2711;1.6645;9.5804;-0.3868;-0.5176;0.2251;-0.1435;-0.0052;0.0315;3.3;-20.17;-43.63;-11.99;152.77;-9.36;8.86;5.0;62.1;;;;NaN;;;;0 / 0;67568;2021-03-12 21:38:44:946
-1.3958;1.5234;9.0995;-1.4419;1.2999;9.6126;0.0388;0.4272;-0.4456;0.0572;-0.0894;-0.7698;3.9;-15.83;-43.74;-12.64;157.2;-7.62;8.53;5.0;61.035;;;;NaN;;;;0 / 0;68067;2021-03-12 21:38:45:445
-1.0796;0.1436;9.9379;-0.9348;0.3572;9.7555;-0.3607;0.3848;0.1992;-1.1752;0.2779;-0.2166;3.9;-6.22;-45.52;-13.79;169.56;-9.91;8.2;5.0;57.677;;;;NaN;;;;0 / 0;68567;2021-03-12 21:38:45:945
-0.682;0.5892;11.3081;-1.8969;2.5169;9.2864;1.6156;0.4615;-2.3208;-1.721;-0.2018;-0.538;3.6;0.0;-48.74;-6.68;178.63;-14.01;9.05;2.0;58.65;;;;NaN;;;;0 / 0;69067;2021-03-12 21:38:46:445
-1.3862;0.5078;11.2986;-2.2887;1.2259;9.4567;-0.3682;0.2848;2.8822;-0.9165;-0.1388;1.3019;4.3;-0.31;-47.88;-11.63;176.27;-9.4;14.3;2.0;55.695;;;;NaN;;;;0 / 0;69566;2021-03-12 21:38:46:944
-1.8701;1.3366;10.0194;-1.0291;3.8864;8.9447;0.2846;-2.3905;-2.02;-1.9421;0.876;-0.8835;4.3;3.34;-49.19;-2.77;183.46;-23.35;6.56;2.0;52.909;;;;NaN;;;;0 / 0;70067;2021-03-12 21:38:47:445
-1.5683;1.7965;10.7189;-1.6203;1.025;9.6174;-1.3692;2.6094;0.1662;0.381;-1.8201;-0.7747;5.1;14.66;-40.37;-8.98;199.01;-6.0;9.56;2.0;57.561;;;;NaN;;;;0 / 0;70567;2021-03-12 21:38:47:945
-1.4054;1.6336;7.1352;-2.2124;2.0;9.3421;0.3919;-1.396;1.0112;0.5179;0.4417;0.1997;5.1;17.27;-40.71;0.92;202.99;-11.77;13.32;2.0;46.933;;;;NaN;;;;0 / 0;71067;2021-03-12 21:38:48:445
-0.1645;1.8923;10.6278;-1.5098;3.0631;9.1928;-0.6637;-0.8005;0.8257;0.2069;-0.1836;0.7478;5.1;6.14;-46.83;-1.02;186.87;-13.21;17.23;2.0;67.202;;;;NaN;;;;0 / 0;71568;2021-03-12 21:38:48:946
-0.979;2.5152;9.799;-1.3649;1.901;9.5233;-0.4009;0.4732;0.035;0.1143;-0.8295;-0.471;6.4;6.49;-45.61;-4.84;186.78;-11.18;8.16;2.0;61.258;;;;NaN;;;;0 / 0;72067;2021-03-12 21:38:49:445
0.1421;0.5125;10.5703;0.2141;0.8645;9.7661;-0.262;-0.1008;-1.4083;-1.3789;0.6018;-0.2739;4.2;11.95;-38.98;-12.05;197.96;-5.06;-1.26;2.0;61.979;;;;NaN;;;;0 / 0;72566;2021-03-12 21:38:49:944
-0.5095;1.8061;10.1487;-0.2905;1.9822;9.5998;-0.029;0.2564;0.0778;0.2395;0.2588;0.6947;5.2;11.62;-43.01;-8.24;196.23;-9.59;0.35;2.0;63.232;;;;NaN;;;;0 / 0;73066;2021-03-12 21:38:50:444
-1.003;1.4228;9.8229;-0.4365;2.3856;9.502;-0.2524;-0.6538;1.0665;0.0486;0.5487;1.7689;3.9;-6.16;-51.42;-4.86;172.64;-13.63;3.1;2.0;65.044;;;;NaN;;;;0 / 0;73567;2021-03-12 21:38:50:945
1.3063;3.7081;8.9222;1.1033;3.3481;9.1511;-0.1733;0.4449;-0.6617;-0.4182;0.36;0.4997;2.1;-36.45;-38.88;-3.04;134.0;-19.96;-6.87;2.0;63.921;;;;NaN;;;;0 / 0;74068;2021-03-12 21:38:51:446
-3.7721;2.0696;9.3822;-2.0773;0.7259;9.5566;-1.6173;0.2326;0.1532;-0.391;1.4045;0.6458;1.8;-36.54;-27.16;-21.52;122.41;-4.25;12.26;2.0;64.014;;;;NaN;;;;0 / 0;74567;2021-03-12 21:38:51:945
0.7457;1.8205;9.4205;-0.5136;1.5274;9.6734;0.4199;-1.3186;1.346;-0.1937;0.7834;1.5457;1.8;-41.19;-21.93;-17.61;114.27;-10.1;1.87;2.0;65.188;;;;NaN;;;;0 / 0;75067;2021-03-12 21:38:52:445
-0.361;2.1654;8.2036;-0.0067;2.9501;9.3524;-0.1075;-1.2112;2.3539;1.4163;0.0499;1.5991;2.1;-37.19;0.75;-21.8;83.79;-9.84;4.74;2.0;58.313;;;;NaN;;;;0 / 0;75568;2021-03-12 21:38:52:946
-1.0748;2.9991;10.1248;-0.4706;2.747;9.4023;-0.344;1.1067;-0.5442;-0.116;0.4263;0.2801;2.1;-28.41;10.42;-24.62;60.99;-16.27;2.87;2.0;65.392;;;;NaN;;;;0 / 0;76068;2021-03-12 21:38:53:446
0.0367;3.7081;8.9079;0.8033;3.2713;9.21;-0.6872;0.3516;0.0338;0.2419;-0.3796;-0.0074;3.0;-28.47;9.18;-22.9;56.81;-19.49;-4.99;2.0;59.137;;;;NaN;;;;0 / 0;76567;2021-03-12 21:38:53:945
1.5219;3.5931;8.5533;1.0755;3.1862;9.2121;0.6105;0.3225;-0.0895;0.0957;0.2051;0.6872;3.9;-24.28;12.03;-21.37;49.25;-18.89;-5.46;2.0;58.846;;;;NaN;;;;0 / 0;77068;2021-03-12 21:38:54:446
1.9387;3.1045;8.9797;1.1135;2.6444;9.3775;0.6975;0.3216;-0.154;0.0298;0.1622;0.599;4.0;-11.44;16.23;-20.62;22.11;-15.66;-6.17;2.0;52.564;;;;NaN;;;;0 / 0;77567;2021-03-12 21:38:54:945
0.626;2.702;9.272;1.0074;2.7756;9.3516;-0.0574;-0.1437;-0.2324;0.0593;0.2201;0.2533;3.4;-4.63;16.55;-20.93;6.94;-16.44;-6.15;2.0;59.08;;;;NaN;;;;0 / 0;78067;2021-03-12 21:38:55:445
-0.8688;3.3057;9.6217;-0.1883;3.042;9.321;-0.9905;0.3163;-0.3353;-0.0673;-0.0731;-0.0962;2.4;-2.17;16.11;-22.07;6.33;-18.07;1.16;2.0;61.635;;;;NaN;;;;0 / 0;78566;2021-03-12 21:38:55:944
0.1469;3.2673;10.3691;0.3084;2.8377;9.382;-0.4851;0.5199;0.0078;-0.1872;-0.2013;-0.1708;3.0;-9.05;17.01;-21.72;15.02;-16.31;0.58;2.0;57.27;;;;NaN;;;;0 / 0;79068;2021-03-12 21:38:56:446
1.3542;2.4912;9.3391;0.7115;2.9641;9.3208;0.3628;-1.1249;-0.1745;0.0589;-0.1657;-0.0244;3.3;-14.28;15.41;-20.88;30.78;-17.14;-4.28;2.0;63.173;;;;NaN;;;;0 / 0;79566;2021-03-12 21:38:56:944
1.1961;2.9032;9.4397;0.8109;2.815;9.3589;0.4169;0.2447;-0.3786;-0.0076;0.1633;0.2432;3.3;-11.01;16.33;-19.64;23.42;-16.68;-4.95;2.0;61.67;;;;NaN;;;;0 / 0;80068;2021-03-12 21:38:57:446
-0.2508;2.587;8.7546;0.6989;3.577;9.1042;-0.3782;-1.1735;-0.6065;0.5799;0.7955;0.6634;3.0;-1.12;13.54;-23.25;357.96;-21.39;-4.39;2.0;56.056;;;;NaN;;;;0 / 0;80567;2021-03-12 21:38:57:945
0.626;3.3488;10.2158;0.8904;2.6585;9.3973;-0.4967;0.3843;-0.0762;-0.4462;-0.0933;-0.626;3.0;-2.08;15.21;-21.25;358.9;-18.41;-6.53;2.0;48.632;;;;NaN;;;;0 / 0;81067;2021-03-12 21:38:58:445
1.2009;2.3379;10.4841;1.4996;2.7286;9.2993;0.0468;-0.0305;1.6883;0.0116;0.4663;-0.4488;2.7;-16.4;15.67;-18.9;28.24;-16.65;-12.23;2.0;53.666;;;;NaN;;;;0 / 0;81573;2021-03-12 21:38:58:951
1.5842;3.368;8.539;1.5532;3.3133;9.0983;0.1675;0.0604;-0.9023;0.3054;-0.0097;0.2938;2.7;-13.86;14.46;-20.1;26.83;-19.75;-9.69;2.0;55.429;;;;NaN;;;;0 / 0;82067;2021-03-12 21:38:59:445
-0.7586;3.9572;9.5546;0.525;2.9431;9.3399;-0.2316;0.6067;-0.5722;0.0269;0.9165;0.3858;2.7;-2.86;15.44;-19.52;5.26;-17.46;-3.22;2.0;46.614;;;;NaN;;;;0 / 0;82566;2021-03-12 21:38:59:944
-0.6149;3.1236;10.4362;-0.3214;3.0752;9.3065;-0.2317;-0.7463;-0.9606;-1.4359;0.7049;0.4796;2.4;5.65;13.48;-18.94;343.67;-27.12;0.2;2.0;54.843;;;;NaN;;;;0 / 0;83066;2021-03-12 21:39:00:444
-0.5766;1.739;10.3212;-0.7723;1.6577;9.6346;-0.2852;0.4352;1.8764;1.8892;-1.4318;-0.7867;3.7;1.41;20.03;-10.58;2.54;-6.08;10.05;2.0;55.013;;;;NaN;;;;0 / 0;83567;2021-03-12 21:39:00:945
-1.4725;-0.8864;12.6879;-0.1812;-0.9669;9.7572;-1.3845;-0.743;3.2901;-1.9373;0.1362;-0.9667;2.7;-16.86;20.64;-7.61;40.41;5.66;1.06;2.0;54.611;;;;NaN;;;;0 / 0;84067;2021-03-12 21:39:01:445
-0.8065;0.4455;11.7058;-0.5126;1.5816;9.6647;-0.5302;0.1943;2.2924;-0.6889;0.2405;0.3444;3.3;-14.35;20.58;-8.86;33.24;-9.28;3.04;2.0;54.056;;;;NaN;;;;0 / 0;84567;2021-03-12 21:39:01:945
1.656;1.6959;7.3939;0.8029;3.1903;9.2384;1.1378;-3.3434;0.0022;1.6722;0.8841;0.5057;2.7;-6.67;19.0;-15.3;17.75;-13.56;0.13;2.0;48.84;;;;NaN;;;;0 / 0;85067;2021-03-12 21:39:02:445
0.3337;2.817;9.3822;0.2594;3.1096;9.2969;0.0648;1.6028;1.6633;-0.0663;-0.3208;-1.9096;2.7;-17.88;16.61;-15.74;40.97;-19.86;1.64;2.0;43.732;;;;NaN;;;;0 / 0;85567;2021-03-12 21:39:02:945
0.9565;0.9485;9.4301;-0.3289;1.2999;9.7146;1.238;-0.1085;-1.4121;-0.4321;-0.4961;-1.0916;3.3;-36.29;1.47;-8.82;86.59;-10.55;3.92;2.0;40.565;;;;NaN;;;;0 / 0;86068;2021-03-12 21:39:03:446
0.9422;2.8266;7.8634;0.2695;1.9456;9.6079;1.9218;1.0274;-0.8791;0.6038;-0.007;-1.649;2.7;-41.13;-15.71;-6.41;110.38;-6.07;-1.23;2.0;45.433;;;;NaN;;;;0 / 0;86567;2021-03-12 21:39:03:945
0.2187;2.8984;7.7005;-0.9161;2.5255;9.4315;0.826;0.5825;-1.0904;-0.5335;-1.7246;-1.3145;2.7;-39.75;-20.88;-10.65;114.22;-14.02;3.12;2.0;47.972;;;;NaN;;;;0 / 0;87067;2021-03-12 21:39:04:445
-0.9071;2.2325;10.1056;-0.965;1.2745;9.6755;-0.4719;1.0407;-0.1412;0.0547;-0.7941;-0.9371;2.4;-26.53;-40.81;-8.13;145.17;-9.47;3.01;2.0;50.435;;;;NaN;;;;0 / 0;87567;2021-03-12 21:39:04:945
1.5027;1.2983;9.5403;0.3923;1.5109;9.6816;-0.7322;0.4944;-0.0133;0.4258;-0.4373;0.4727;2.7;-22.15;-44.58;-5.5;153.46;-7.16;-0.18;2.0;61.729;;;;NaN;;;;0 / 0;88067;2021-03-12 21:39:05:445
2.0153;2.1367;11.7824;-0.3401;1.1881;9.7285;1.0655;1.83;1.2235;0.0198;-1.0644;-0.8034;3.0;-16.54;-46.29;-7.23;159.0;-6.96;2.0;2.0;56.063;;;;NaN;;;;0 / 0;88567;2021-03-12 21:39:05:945
1.8956;1.2216;12.3286;0.3798;0.6972;9.7745;1.0355;0.3308;2.3861;0.8625;-0.2899;0.9935;3.3;-22.11;-43.02;-10.98;152.97;-3.38;-2.28;2.0;43.119;;;;NaN;;;;0 / 0;89067;2021-03-12 21:39:06:445
0.5733;3.0757;7.7005;1.9618;2.0455;9.3882;0.7218;-0.6991;1.9581;-0.8677;0.3283;-0.7417;2.7;-26.9;-41.72;-6.08;146.93;-12.04;-11.8;2.0;44.999;;;;NaN;;;;0 / 0;89567;2021-03-12 21:39:06:945
2.528;1.442;11.0734;1.752;1.0864;9.5875;0.0701;0.4597;0.5803;-0.1559;-0.7706;-1.1985;2.7;-12.63;-46.28;-10.46;166.09;-6.36;-10.36;2.0;59.218;;;;NaN;;;;0 / 0;90066;2021-03-12 21:39:07:444
1.1578;2.2181;9.2241;1.017;1.8387;9.5789;-0.0454;-0.7549;-1.1427;-0.5331;0.7889;0.5985;2.7;-1.42;-46.98;-10.98;180.22;-10.81;-6.06;2.0;57.554;;;;NaN;;;;0 / 0;90567;2021-03-12 21:39:07:945
2.2932;2.3475;10.7668;1.1023;0.7806;9.7132;1.0712;1.1679;0.6955;0.1427;-0.0172;0.5602;2.7;-10.36;-47.01;-14.61;169.87;-5.07;-6.96;2.0;57.329;;;;NaN;;;;0 / 0;91067;2021-03-12 21:39:08:445
1.0763;1.4468;8.2946;2.3515;2.5524;9.172;0.1073;-1.555;0.7436;-0.5741;0.4701;-0.2739;2.4;-13.43;-50.43;-5.45;165.6;-17.66;-12.27;2.0;51.748;;;;NaN;;;;0 / 0;91570;2021-03-12 21:39:08:948
2.6142;-0.072;11.7441;2.0757;0.9604;9.5362;0.3138;-0.476;1.896;-0.0414;-0.3472;-1.6675;2.7;3.35;-45.05;-15.08;187.42;-3.81;-10.68;2.0;57.46;;;;NaN;;;;0 / 0;92067;2021-03-12 21:39:09:445
-0.7059;0.3928;9.0324;-0.5384;1.2264;9.7148;1.6909;0.329;-2.1381;-3.2208;-0.0263;-1.4622;3.3;21.44;-29.53;-15.79;216.02;-7.18;3.17;2.0;49.991;;;;NaN;;;;0 / 0;92569;2021-03-12 21:39:09:947
-1.4725;-0.8241;8.9222;0.8749;3.522;9.1105;0.765;1.1852;-0.198;-4.3637;1.8553;1.9601;6.1;16.49;-40.71;-6.87;204.24;-17.51;-13.14;2.0;41.581;;;;NaN;;;;0 / 0;93068;2021-03-12 21:39:10:446
-0.7538;0.4742;12.985;0.5423;3.7044;9.0639;0.0819;1.9641;-4.0877;-1.6333;0.7166;0.1247;2.7;7.54;-47.61;-2.97;191.18;-26.77;-6.27;2.0;38.546;;;;NaN;;;;0 / 0;93568;2021-03-12 21:39:10:946
1.3686;2.6589;4.3708;0.6792;3.1295;9.269;0.692;-0.5566;-4.7032;-3.2758;0.2235;0.3475;1.8;23.86;-30.52;-9.23;230.26;-38.19;-7.36;2.0;47.057;;;;NaN;;;;0 / 0;94068;2021-03-12 21:39:11:446
-0.4855;3.4542;9.9236;-0.7496;3.1022;9.2728;-0.3061;1.6866;-2.3534;-3.6529;1.2226;0.8196;3.7;26.65;-21.23;-9.18;237.95;-18.44;4.62;2.0;43.303;;;;NaN;;;;0 / 0;94566;2021-03-12 21:39:11:944
0.6882;5.8688;8.6252;-0.4408;6.487;7.3413;0.226;0.5405;0.4937;-1.1771;-1.5043;-0.9841;2.1;26.59;-23.31;-1.46;242.25;-42.43;7.19;2.0;46.548;;;;NaN;;;;0 / 0;95067;2021-03-12 21:39:12:445
-2.6702;-1.4997;11.5477;-1.6877;-0.1381;9.6593;0.0567;-1.3416;2.8768;1.9936;-0.8011;-3.3186;6.4;19.45;6.18;-3.93;289.83;-3.0;11.98;2.0;43.36;;;;NaN;;;;0 / 0;95567;2021-03-12 21:39:12:945
0.5876;-0.7714;12.4101;-0.4027;0.4068;9.7899;0.9903;-1.6414;2.971;2.0982;-1.8651;-0.6104;4.6;-7.74;17.13;-10.0;28.07;-2.11;7.49;2.0;49.191;;;;NaN;;;;0 / 0;96068;2021-03-12 21:39:13:446
-0.2652;5.6772;8.2419;-0.9591;5.6017;7.9919;-0.1167;0.3477;-2.5273;-2.8859;1.441;-0.5499;5.1;-12.04;8.32;-21.28;25.52;-42.3;-5.55;2.0;47.674;;;;NaN;;;;0 / 0;96566;2021-03-12 21:39:13:944
-1.506;2.1702;9.363;-1.194;2.1559;9.4919;0.9523;0.9188;-1.8161;-0.5317;0.4475;0.2054;3.6;-20.3;11.41;-18.44;56.16;-13.71;5.4;2.0;49.067;;;;NaN;;;;0 / 0;97067;2021-03-12 21:39:14:445
-1.506;4.2351;8.5869;-0.6119;4.2302;8.8262;-1.2534;-0.1139;-1.767;-0.4103;-0.5659;-0.6912;3.7;-26.0;4.19;-23.61;64.5;-25.55;3.97;2.0;43.205;;;;NaN;;;;0 / 0;97567;2021-03-12 21:39:14:945
-1.6689;2.5918;9.272;-0.4281;3.1887;9.2639;-1.1291;-0.3691;-0.2833;1.7226;-0.7323;-0.9401;2.7;-30.45;7.36;-18.11;74.97;-5.56;5.05;2.0;48.604;;;;NaN;;;;0 / 0;98067;2021-03-12 21:39:15:445
0.4343;-1.1403;10.3883;-1.0815;-1.5788;9.6181;0.7553;-0.4136;1.1226;0.3085;-0.2817;0.2735;2.7;-29.56;11.26;-12.96;73.41;9.26;6.42;2.0;53.258;;;;NaN;;;;0 / 0;98567;2021-03-12 21:39:15:945
-0.3658;2.5104;10.6901;-0.3067;2.456;9.4892;0.2305;1.7939;-0.7709;-1.7635;0.2733;0.6279;2.7;-22.69;12.48;-18.58;51.12;-25.58;1.1;2.0;51.57;;;;NaN;;;;0 / 0;99067;2021-03-12 21:39:16:445
-0.7347;2.0648;9.708;-0.7293;3.6213;9.0843;0.4262;-0.573;-2.773;0.3407;-0.1959;0.2301;2.7;-12.46;14.1;-22.99;33.16;-21.67;4.59;2.0;51.705;;;;NaN;;;;0 / 0;99567;2021-03-12 21:39:16:945
-0.5862;5.0831;8.012;-0.1086;5.0548;8.4028;-1.2902;-0.0562;-1.0262;1.6343;-0.7113;-0.5107;2.7;-13.66;9.25;-27.7;39.44;-23.86;3.68;2.0;49.163;;;;NaN;;;;0 / 0;100068;2021-03-12 21:39:17:446
-2.0713;0.2586;11.2459;-1.5247;-1.1698;9.6165;-0.0628;-0.4964;2.0;0.5581;0.0296;-0.3495;3.1;-22.52;17.07;-13.93;54.96;-4.27;10.63;2.0;52.976;;;;NaN;;;;0 / 0;100567;2021-03-12 21:39:17:945
-1.7695;-0.369;8.86;-2.1585;-0.3217;9.5607;-0.6184;-1.0229;1.2816;0.5166;0.6837;1.756;3.0;-8.16;19.31;-14.79;29.21;6.37;6.68;2.0;49.546;;;;NaN;;;;0 / 0;101067;2021-03-12 21:39:18:445
-0.7011;-2.9465;11.3992;-0.9139;0.7338;9.7364;0.6035;-4.3557;0.8678;3.9021;-1.7581;-1.7421;3.0;-4.53;13.47;-22.59;25.96;-4.29;5.36;2.0;36.454;;;;NaN;;;;0 / 0;101567;2021-03-12 21:39:18:945
-1.4006;2.9416;5.8321;-0.8275;3.3287;9.1872;-0.645;-0.4462;-3.1329;2.6116;-0.2513;-0.3407;3.0;-11.79;14.54;-22.7;38.06;-6.77;4.32;2.0;40.624;;;;NaN;;;;0 / 0;102067;2021-03-12 21:39:19:445
-1.7072;2.2229;9.0372;-0.5702;2.6562;9.4228;0.0595;0.8238;-1.9587;-2.4368;1.2801;0.2054;3.6;-4.86;15.96;-20.91;16.6;-15.72;3.46;2.0;42.965;;;;NaN;;;;0 / 0;102567;2021-03-12 21:39:19:945
-0.4328;2.841;7.2119;-0.7879;3.3325;9.1893;1.0046;0.0788;-2.1241;-2.3673;1.5146;0.0068;3.0;-6.97;14.67;-21.11;18.53;-14.44;-0.99;2.0;52.939;;;;NaN;;;;0 / 0;103067;2021-03-12 21:39:20:445
-1.2042;-1.4661;11.4998;-0.8723;2.0655;9.5469;-0.1861;2.034;-0.5937;-2.0316;0.7927;-0.3028;2.4;-9.12;19.67;-10.85;24.68;-12.16;5.22;2.0;50.455;;;;NaN;;;;0 / 0;103567;2021-03-12 21:39:20:945
-0.3274;-1.8446;13.5359;-1.1329;0.1356;9.7401;0.8602;2.299;-0.0062;-1.7492;0.5594;0.5264;3.3;-4.41;22.13;-5.14;11.66;-0.79;6.63;2.0;55.624;;;;NaN;;;;0 / 0;104068;2021-03-12 21:39:21:446
-1.7839;2.06;9.0516;-0.6564;4.874;8.4843;-0.4664;0.1096;-2.485;-3.4309;0.5927;-0.2131;2.7;-7.59;10.4;-25.41;25.51;-29.8;4.42;2.0;54.066;;;;NaN;;;;0 / 0;104567;2021-03-12 21:39:21:945
-2.3876;1.9594;8.7594;-0.3387;2.7408;9.4098;-0.3073;0.7405;-0.2829;-2.8323;0.6715;0.2152;3.3;-8.94;18.95;-15.61;22.93;-16.23;2.06;2.0;48.697;;;;NaN;;;;0 / 0;105067;2021-03-12 21:39:22:445
-2.9193;-1.4661;10.7668;-2.6614;0.5377;9.4233;-0.3654;1.4046;-1.4289;-1.5561;1.1784;-1.3696;3.6;-14.83;20.75;-9.2;38.5;-3.14;15.77;2.0;42.127;;;;NaN;;;;0 / 0;105566;2021-03-12 21:39:22:944
-0.7826;-0.8241;9.2864;-2.6359;0.4404;9.4355;2.1729;1.4429;-0.7406;-2.7681;-0.1032;0.6256;3.0;-19.08;12.08;-20.86;56.64;-18.04;16.68;2.0;42.618;;;;NaN;;;;0 / 0;106068;2021-03-12 21:39:23:446
-0.9119;0.0143;10.1631;-0.2113;2.5769;9.4597;-2.1223;0.8706;-1.0351;-4.0538;1.5012;1.6048;2.7;-14.13;18.4;-13.03;34.61;-15.23;1.28;2.0;59.581;;;;NaN;;;;0 / 0;106567;2021-03-12 21:39:23:945
-1.3335;2.7164;10.0098;-1.3624;3.0834;9.2091;0.4474;1.4481;0.6486;-2.8765;2.0561;-0.7621;2.4;-4.48;18.61;-15.6;15.42;-18.33;8.42;2.0;58.231;;;;NaN;;;;0 / 0;107068;2021-03-12 21:39:24:446
-0.3658;2.9511;9.4349;-1.8915;5.138;8.136;-1.3793;-0.5759;-0.1909;0.6742;-1.8058;-0.5574;2.4;-15.08;13.49;-22.18;43.67;-31.6;13.09;2.0;55.092;;;;NaN;;;;0 / 0;107567;2021-03-12 21:39:24:945
-3.0535;2.3427;8.3952;-1.5933;4.2529;8.6916;-1.8223;-2.4096;-0.9587;1.9779;-0.9439;-3.0076;2.4;-38.29;-6.97;-17.77;96.52;-11.55;10.01;2.0;50.273;;;;NaN;;;;0 / 0;108067;2021-03-12 21:39:25:445
0.305;3.665;9.6553;-2.0209;1.2311;9.5169;-0.9178;-1.6302;1.6768;1.2904;-0.5416;-0.5753;2.4;-39.6;-25.89;-12.13;121.36;-7.21;11.99;2.0;57.199;;;;NaN;;;;0 / 0;108568;2021-03-12 21:39:25:946
-0.6245;0.9341;7.5424;-1.871;0.8723;9.5869;0.8016;-2.8165;-0.1865;1.7563;-0.3735;-2.0217;2.7;-28.82;-39.79;-10.3;142.41;-5.1;11.04;2.0;65.63;;;;NaN;;;;0 / 0;109067;2021-03-12 21:39:26:445
-3.5661;0.1389;10.3931;-2.0662;-0.1399;9.5855;-1.3757;0.3211;1.0431;0.9083;-0.6143;-0.7335;3.0;-3.01;-47.77;-5.95;175.01;0.82;12.16;2.0;41.284;;;;NaN;;;;0 / 0;109568;2021-03-12 21:39:26:946
-2.8858;0.2203;10.7284;-2.9897;-0.5707;9.3224;0.2203;1.3813;-0.2551;0.0923;-0.1183;0.9623;3.0;-4.13;-46.81;-10.35;172.03;5.61;16.41;2.0;42.956;;;;NaN;;;;0 / 0;110068;2021-03-12 21:39:27:446
0.6643;-0.2301;10.968;-1.0306;-0.132;9.7515;-1.3784;-0.7641;-0.9999;0.7316;-0.8234;1.6345;2.4;-21.92;-43.8;-11.43;152.43;0.77;6.03;2.0;50.936;;;;NaN;;;;0 / 0;110567;2021-03-12 21:39:27:945
-2.378;-1.0301;11.1357;-3.2321;-2.2381;8.9841;0.797;0.0887;1.4133;1.9634;-0.6566;-0.9212;3.3;-20.13;-40.06;-21.17;148.26;13.19;19.79;2.0;55.311;;;;NaN;;;;0 / 0;111067;2021-03-12 21:39:28:445
-1.1946;-2.6303;11.0542;-2.6652;-3.1684;8.8898;0.7271;0.6284;1.5908;-0.3233;0.2101;-0.8628;3.6;-7.14;-42.87;-19.73;164.93;18.85;16.69;2.0;62.424;;;;NaN;;;;0 / 0;111566;2021-03-12 21:39:28:944
-3.8248;-1.9452;9.5451;-1.9581;-0.9867;9.5584;-1.4531;-0.6744;-0.5044;0.4676;-0.2614;0.5469;3.9;-2.63;-43.11;-15.99;171.57;6.44;13.22;2.0;64.351;;;;NaN;;;;0 / 0;112067;2021-03-12 21:39:29:445
-0.7395;-0.0145;11.9789;-3.3627;-0.3463;9.2056;2.0557;-0.063;-3.0096;-1.3802;-1.5103;-0.4079;3.6;-11.71;-43.06;-17.07;158.49;2.02;20.07;2.0;61.488;;;;NaN;;;;0 / 0;112566;2021-03-12 21:39:29:944
-2.8523;-1.4853;7.9209;-2.3917;-1.466;9.3969;-0.4881;-0.706;0.602;-0.2747;0.3106;-0.7408;3.9;-3.91;-42.98;-17.18;169.8;8.6;14.28;2.0;42.848;;;;NaN;;;;0 / 0;113066;2021-03-12 21:39:30:444
0.0079;-0.4121;8.103;-2.1262;2.1439;9.3302;2.1845;-2.5631;-1.1334;3.4477;0.3373;0.6524;3.3;-3.36;-48.99;-3.49;175.66;-12.63;12.84;2.0;44.268;;;;NaN;;;;0 / 0;113569;2021-03-12 21:39:30:947
-4.4525;-1.423;8.7354;-2.2193;-1.0704;9.4921;-1.7355;-0.0919;-0.8234;1.1852;-0.7199;0.2177;3.9;-3.98;-41.46;-20.13;167.18;13.37;18.08;2.0;62.758;;;;NaN;;;;0 / 0;114067;2021-03-12 21:39:31:445
-0.0735;-0.0528;9.5259;-2.3166;-0.6221;9.5088;3.3027;-1.4977;1.0363;0.7784;-0.1429;0.2895;3.3;-25.14;-37.06;-18.59;142.65;3.64;13.69;2.0;56.034;;;;NaN;;;;0 / 0;114567;2021-03-12 21:39:31:945
-1.3527;0.9341;9.4588;-2.31;-1.288;9.4433;-2.6655;-0.671;3.5215;1.0156;-0.3151;0.8818;3.3;-27.19;-36.48;-16.27;140.85;7.55;13.75;2.0;57.594;;;;NaN;;;;0 / 0;115067;2021-03-12 21:39:32:445
-3.226;1.0731;7.6766;-2.6498;-1.3271;9.3481;-0.8162;-0.1544;2.8861;2.2593;-0.553;-0.0262;3.3;-28.46;-33.89;-18.09;137.7;7.78;15.83;2.0;51.024;;;;NaN;;;;0 / 0;115567;2021-03-12 21:39:32:945
-1.5587;-0.4217;11.9501;-2.7235;-1.0207;9.3654;0.426;1.0284;1.4768;-1.9082;1.0465;0.0173;3.3;-31.15;-28.13;-19.72;129.31;5.97;16.21;2.0;56.143;;;;NaN;;;;0 / 0;116067;2021-03-12 21:39:33:445
-0.6772;0.2107;8.218;-1.4018;-0.9933;9.655;1.1749;1.3997;-1.2714;-0.8202;0.4858;-0.4009;3.7;-36.47;-19.47;-17.11;117.54;3.02;6.45;2.0;66.482;;;;NaN;;;;0 / 0;116566;2021-03-12 21:39:33:944
-1.2281;-0.8816;11.1213;-1.5641;-0.3646;9.6743;0.282;0.9483;-0.3232;-1.0653;-0.0139;-0.8169;3.6;-30.32;-29.21;-20.19;132.0;2.13;9.18;2.0;55.305;;;;NaN;;;;0 / 0;117067;2021-03-12 21:39:34:445
-0.5095;-0.551;8.6875;-0.5757;0.2746;9.7859;-0.5951;-1.6481;-0.5074;0.0881;-0.5541;-0.1083;3.6;-31.62;-34.61;-12.01;136.75;-1.6;3.37;2.0;64.674;;;;NaN;;;;0 / 0;117567;2021-03-12 21:39:34:945
-1.5156;-1.0493;11.5525;-1.4582;-1.8699;9.5156;-0.5775;1.0096;1.9451;-0.5307;-0.0225;-0.9735;4.3;-15.54;-39.49;-19.59;154.59;5.73;10.02;2.0;66.553;;;;NaN;;;;0 / 0;118067;2021-03-12 21:39:35:445
-2.7038;-1.1643;9.5451;-0.9571;-1.2236;9.6828;-1.3766;0.3407;0.1092;-0.3453;0.3938;-0.3613;4.3;-1.8;-42.28;-16.37;175.34;3.95;5.42;2.0;64.791;;;;NaN;;;;0 / 0;118567;2021-03-12 21:39:35:945
0.2714;-1.1212;8.7258;-0.2164;0.1394;9.8033;0.7567;-1.1433;-1.4978;0.7423;0.4466;1.2382;3.7;-15.12;-44.26;-16.04;160.68;-0.81;1.26;2.0;65.779;;;;NaN;;;;0 / 0;119067;2021-03-12 21:39:36:445
0.6403;2.5487;8.3665;0.4043;1.4392;9.692;2.0492;-0.2209;-0.0061;2.8919;0.014;-0.6706;3.0;-11.47;-49.31;-6.42;167.26;-8.44;-2.39;2.0;55.652;;;;NaN;;;;0 / 0;119567;2021-03-12 21:39:36:945
-2.3828;-2.477;12.2711;-1.3602;-1.3572;9.6166;-0.8584;-1.2462;2.345;-0.2832;-0.7354;0.6692;4.3;-10.81;-38.74;-25.5;160.28;15.51;10.91;2.0;58.367;;;;NaN;;;;0 / 0;120066;2021-03-12 21:39:37:444
-1.3623;0.7281;9.2097;0.1309;1.4203;9.7024;-1.433;-0.551;-0.2428;0.493;-0.7085;1.527;3.0;-33.82;-33.37;-17.84;131.95;-4.18;4.81;2.0;53.006;;;;NaN;;;;0 / 0;120566;2021-03-12 21:39:37:944
0.6978;-0.0336;8.5485;-0.0789;1.2797;9.7225;-1.1837;-0.3373;0.0663;-1.0486;0.0983;0.4734;3.0;-38.6;-17.31;-17.7;110.39;-7.5;0.46;2.0;51.181;;;;NaN;;;;0 / 0;121067;2021-03-12 21:39:38:445
-1.712;-0.0672;9.8948;-0.6328;-0.2926;9.7818;0.0283;1.0229;-1.5041;-0.4889;0.724;1.2795;3.3;-31.32;7.19;-14.66;78.29;1.71;3.7;2.0;59.664;;;;NaN;;;;0 / 0;121567;2021-03-12 21:39:38:945
-1.5779;4.9729;8.9702;-1.4453;3.2951;9.1227;-0.12;1.6483;-0.3714;-0.3589;-0.3073;1.135;3.3;-8.2;12.72;-23.65;31.35;-14.94;7.88;2.0;57.865;;;;NaN;;;;0 / 0;122067;2021-03-12 21:39:39:445
0.281;3.5117;11.8591;-2.183;1.8256;9.3847;1.4209;3.1636;-1.6124;0.5358;1.2829;0.9398;3.0;8.98;15.73;-13.7;348.08;-14.21;18.44;2.0;46.463;;;;NaN;;;;0 / 0;122567;2021-03-12 21:39:39:945
-0.04;1.7294;7.0346;-0.937;3.0755;9.2647;-0.6416;-2.2964;-1.9223;4.1613;-0.6062;-2.4966;2.1;-25.85;8.17;-20.16;64.97;-18.28;5.78;2.0;56.968;;;;NaN;;;;0 / 0;123067;2021-03-12 21:39:40:445
-2.766;-0.6373;7.4418;-1.5585;-1.5579;9.5559;-1.445;0.0986;-0.2359;1.0601;0.0697;1.1703;3.0;-19.42;19.39;-8.5;48.56;9.14;9.26;2.0;55.974;;;;NaN;;;;0 / 0;123567;2021-03-12 21:39:40:945
0.511;2.8937;6.8573;-1.7162;1.8284;9.4806;2.7932;-1.9511;-2.3839;2.8659;0.7532;2.2835;3.9;4.92;18.82;-11.9;352.46;-10.75;10.26;2.0;57.14;;;;NaN;;;;0 / 0;124067;2021-03-12 21:39:41:445
-1.6258;-3.5694;11.3656;-1.0636;0.5308;9.7343;-1.4984;-3.9084;1.1664;2.4158;-1.0839;-3.5892;3.3;-27.54;10.91;-9.64;70.67;7.33;10.21;2.0;60.154;;;;NaN;;;;0 / 0;124567;2021-03-12 21:39:41:945
-0.5814;-0.7139;11.9837;-1.7936;-1.9512;9.4417;-2.5555;1.8754;0.4942;-1.6883;-0.3548;0.3298;3.4;-35.03;-23.92;-15.39;123.55;4.37;10.05;2.0;54.932;;;;NaN;;;;0 / 0;125067;2021-03-12 21:39:42:445
-1.7647;-1.3368;10.0864;-2.0298;-1.2107;9.5176;0.9167;-0.0919;0.8251;-0.6496;0.6592;0.2586;3.3;-35.67;-18.28;-18.15;116.12;7.09;12.04;2.0;55.309;;;;NaN;;;;0 / 0;125568;2021-03-12 21:39:42:946
-2.8092;-0.3402;9.3343;-2.1424;0.0319;9.5697;-0.7297;-0.3766;-0.4522;-0.2153;0.0172;-0.3911;3.3;-35.5;-23.06;-17.75;120.45;-0.19;12.62;2.0;49.619;;;;NaN;;;;0 / 0;126067;2021-03-12 21:39:43:445
-2.2007;0.5173;8.5246;-3.1238;-0.18;9.2941;0.8436;0.6762;-0.6724;0.1372;-0.0421;-1.3112;3.6;-28.35;-33.43;-18.62;135.95;2.26;16.72;2.0;41.917;;;;NaN;;;;0 / 0;126568;2021-03-12 21:39:43:946
-1.9947;-0.6517;9.3391;-1.5448;-0.5395;9.6692;0.057;0.0678;-0.0096;0.3581;-0.1536;-0.8577;3.9;-16.94;-42.62;-15.29;155.22;5.9;14.6;2.0;48.973;;;;NaN;;;;0 / 0;127067;2021-03-12 21:39:44:445
-1.0796;-0.7762;9.2432;-1.3849;0.3092;9.7034;0.6572;-0.6943;-1.4193;-0.2471;0.1349;-0.4862;3.3;-10.82;-45.28;-13.41;164.08;-1.81;8.12;2.0;54.673;;;;NaN;;;;0 / 0;127568;2021-03-12 21:39:44:946
-0.888;-1.1451;8.8456;-0.7775;-1.0985;9.7139;0.5911;0.4493;2.2847;0.8787;-0.7298;1.7362;4.0;-25.24;-39.16;-13.26;147.01;6.43;4.58;2.0;37.407;;;;NaN;;;;0 / 0;128067;2021-03-12 21:39:45:445
-2.7756;1.0156;9.5163;-1.933;0.3255;9.6087;-0.3701;0.1735;0.1329;-0.5839;0.8584;-0.6263;3.6;-25.14;-38.3;-15.04;143.91;-6.97;5.89;2.0;43.479;;;;NaN;;;;0 / 0;128567;2021-03-12 21:39:45:945
-3.2116;0.1053;9.6553;-1.8463;-0.4877;9.6189;-1.212;0.4966;-0.0722;-0.0758;-0.025;-0.4858;4.2;-15.91;-41.25;-16.91;155.26;1.89;11.58;2.0;56.671;;;;NaN;;;;0 / 0;129067;2021-03-12 21:39:46:445
-0.5909;-0.0384;8.3761;-1.0467;0.4345;9.7409;0.5047;-0.9999;0.1394;0.3071;0.1785;0.567;3.6;-19.69;-41.95;-15.52;152.42;-2.54;6.13;2.0;48.948;;;;NaN;;;;0 / 0;129566;2021-03-12 21:39:46:944
-0.4137;-0.6996;11.3033;-1.1882;-0.9565;9.6873;0.2154;0.6042;0.1915;-0.691;0.1789;0.2931;3.6;-24.61;-33.88;-23.07;142.33;5.6;6.99;2.0;56.049;;;;NaN;;;;0 / 0;130067;2021-03-12 21:39:47:445
-3.0104;-1.1882;8.9941;-1.7202;-0.6475;9.6329;-0.5944;0.31;-0.9703;-1.7427;0.81;-0.5908;3.6;-24.87;-35.6;-21.66;142.76;-4.18;3.1;2.0;40.975;;;;NaN;;;;0 / 0;130567;2021-03-12 21:39:47:945
-1.7887;-0.3163;9.7128;-2.205;-1.1092;9.4909;0.1437;0.8305;0.0762;-0.0581;-0.4833;0.0299;4.0;-19.64;-36.74;-24.31;146.44;3.52;14.13;2.0;53.546;;;;NaN;;;;0 / 0;131067;2021-03-12 21:39:48:445
-0.8449;-1.0493;9.3582;-1.033;-1.2873;9.6668;0.1736;0.74;1.2146;0.2805;0.1551;0.0613;3.3;-21.57;-40.82;-21.33;150.77;7.54;6.1;2.0;59.796;;;;NaN;;;;0 / 0;131567;2021-03-12 21:39:48:945
-0.4616;-0.8145;10.4697;-1.8472;-1.573;9.5018;0.0812;0.4852;-0.4656;-1.1265;-0.6515;0.2848;3.0;-15.86;-39.54;-26.46;154.2;0.79;8.07;2.0;54.096;;;;NaN;;;;0 / 0;132067;2021-03-12 21:39:49:445
0.4104;0.4598;8.4336;-1.603;1.9338;9.4795;0.7828;-3.7023;1.1423;2.5031;-0.5626;-1.0137;4.0;-9.49;-50.43;-13.38;166.77;11.74;14.68;2.0;53.182;;;;NaN;;;;0 / 0;132566;2021-03-12 21:39:49:944
-1.9899;3.5404;5.5973;-1.5051;4.3503;8.6591;0.1287;-0.5959;-2.4381;-0.434;-0.3584;-2.1198;4.3;13.14;-46.04;2.81;196.7;-18.1;6.58;2.0;58.255;;;;NaN;;;;0 / 0;133068;2021-03-12 21:39:50:446
0.4966;1.4707;7.3173;-1.446;0.9575;9.6521;-1.2454;-4.1406;2.5065;4.4241;-0.6013;-1.4863;3.3;28.51;-18.93;-6.85;237.2;-5.6;8.52;2.0;66.349;;;;NaN;;;;0 / 0;133567;2021-03-12 21:39:50:945
0.9517;-0.4792;8.5438;-1.3912;-1.6508;9.5661;1.8338;-2.0847;3.3484;4.1779;-1.0086;-2.4154;5.8;25.47;4.13;-6.48;272.52;15.36;11.04;2.0;63.739;;;;NaN;;;;0 / 0;134066;2021-03-12 21:39:51:444
-1.4964;1.2839;9.5307;-1.7226;0.2497;9.6509;-1.27;-0.9554;0.5442;3.4471;-0.982;-0.3636;2.7;0.28;20.79;-17.74;5.87;10.93;5.65;2.0;63.273;;;;NaN;;;;0 / 0;134567;2021-03-12 21:39:51:945
-3.82;1.7965;6.407;-1.8113;2.4478;9.3219;-5.8617;-2.9279;3.0843;4.9183;-1.2064;0.2011;2.7;-15.13;11.94;-27.01;76.1;16.26;15.86;2.0;61.228;;;;NaN;;;;0 / 0;135067;2021-03-12 21:39:52:445
1.9483;3.253;8.1844;-2.3495;1.8259;9.3443;2.14;-1.6913;0.4441;2.1692;-0.2325;0.7223;3.0;5.19;16.23;-17.23;357.88;-10.73;14.11;2.0;40.682;;;;NaN;;;;0 / 0;135567;2021-03-12 21:39:52:945
-1.712;0.6275;7.2837;-0.9752;2.0255;9.5455;0.1342;-2.5833;-0.8271;1.3492;-1.6514;-3.1635;3.0;-18.39;12.86;-22.67;61.2;1.17;13.8;2.0;47.519;;;;NaN;;;;0 / 0;136067;2021-03-12 21:39:53:445
-0.7682;-0.5271;9.2384;-0.6873;-1.2262;9.7054;0.1552;0.8663;-0.225;-0.977;0.0724;1.1119;3.0;-29.17;11.84;-16.64;70.92;5.74;4.86;2.0;45.95;;;;NaN;;;;0 / 0;136567;2021-03-12 21:39:53:945
-0.4328;-0.8002;9.9667;-0.0498;-0.8995;9.7652;-0.3644;-0.1383;-0.6142;0.0596;-0.6792;1.1913;3.0;-11.51;22.97;-12.06;28.95;5.26;0.29;2.0;63.759;;;;NaN;;;;0 / 0;137067;2021-03-12 21:39:54:445
0.075;-0.8002;9.7128;0.1001;-1.2625;9.7245;0.7404;-0.5946;0.5003;0.4077;0.5888;0.2694;3.0;-2.87;22.39;-10.03;8.03;7.4;-0.59;2.0;63.305;;;;NaN;;;;0 / 0;137567;2021-03-12 21:39:54:945
-1.8605;3.2242;9.7559;-2.9515;2.4149;9.0348;0.8412;-1.0694;-0.5634;-0.762;-0.1982;-1.7429;2.7;-6.06;13.56;-23.8;28.28;-17.67;11.87;2.0;60.92;;;;NaN;;;;0 / 0;138067;2021-03-12 21:39:55:445
-3.1301;-2.3908;12.2232;-2.344;-1.1555;9.452;-0.7136;-1.2166;2.5705;1.4324;-0.3159;2.1612;3.0;-9.49;22.95;-8.52;28.81;15.57;17.87;2.0;58.009;;;;NaN;;;;0 / 0;138567;2021-03-12 21:39:55:945
-1.8126;0.6467;8.3186;-2.6221;0.2824;9.4454;0.6771;1.4724;-0.3045;-0.7368;0.8009;-0.1483;3.3;11.17;16.8;-10.01;336.42;-8.61;14.49;2.0;52.792;;;;NaN;;;;0 / 0;139068;2021-03-12 21:39:56:446
-3.8057;0.5892;8.3234;-2.3048;2.1999;9.2746;-1.5372;-1.5431;-0.6966;-0.503;-0.0944;-0.2261;3.3;-1.6;16.45;-17.41;19.1;-6.27;14.21;2.0;51.552;;;;NaN;;;;0 / 0;139567;2021-03-12 21:39:56:945
-0.0304;0.3449;9.454;-1.8008;0.8899;9.5987;1.5155;-1.2504;0.555;1.8337;0.4457;1.7046;3.0;12.62;14.73;-6.92;318.97;7.99;8.25;2.0;51.375;;;;NaN;;;;0 / 0;140067;2021-03-12 21:39:57:445
-0.4712;-0.254;10.9344;-1.824;0.9373;9.5898;1.1382;-1.4793;2.1647;2.0363;-0.7165;-0.5281;3.0;19.95;9.95;-2.09;296.82;4.53;17.46;2.0;49.675;;;;NaN;;;;0 / 0;140568;2021-03-12 21:39:57:946
-2.6175;-0.2636;9.9427;-0.7622;2.1725;9.5326;-1.1632;-0.0277;2.0958;-1.5938;1.0314;-0.8804;2.4;5.55;17.98;-11.24;348.09;-24.96;7.64;2.0;49.289;;;;NaN;;;;0 / 0;141067;2021-03-12 21:39:58:445
-0.0544;1.9738;14.6043;0.3435;1.325;9.7107;-0.9758;2.1419;2.2948;-2.336;-1.9565;-0.4443;2.1;-14.67;19.56;-11.48;37.36;-21.97;9.24;2.0;55.778;;;;NaN;;;;0 / 0;141568;2021-03-12 21:39:58:946
-2.4019;3.1572;7.6095;-2.7295;1.7062;9.2633;1.0825;1.5032;-2.2654;-2.0125;-0.3919;-0.2648;2.7;-13.82;19.25;-11.25;39.79;-10.02;16.42;2.0;53.634;;;;NaN;;;;0 / 0;142067;2021-03-12 21:39:59:445
-1.1084;2.6493;6.383;-1.5934;4.4565;8.589;1.0967;-1.3949;-2.3665;-1.6151;-0.3309;2.264;2.4;0.72;17.11;-17.57;5.65;-27.03;10.51;2.0;44.631;;;;NaN;;;;0 / 0;142568;2021-03-12 21:39:59:946
1.4165;3.4973;13.8905;-1.0274;2.3611;9.4625;0.7875;0.3817;1.7885;0.4658;-0.8674;-1.3333;7.9;-6.78;20.79;-13.75;351.37;-12.68;8.52;2.0;48.607;;;;NaN;;;;0 / 0;143067;2021-03-12 21:40:00:445
0.9038;2.1175;10.6182;0.3379;1.2744;9.7176;-0.8744;0.3451;1.1824;-0.7601;-0.9513;-0.9884;6.4;-38.31;2.53;-7.24;83.76;-11.84;1.45;2.0;53.938;;;;NaN;;;;0 / 0;143567;2021-03-12 21:40:00:945
-0.3466;2.6685;9.0612;-0.7908;1.6105;9.6411;0.7781;-0.9722;-0.3332;1.4534;0.2646;0.4721;3.3;-39.28;-8.91;-10.53;100.82;-9.45;4.69;2.0;46.36;;;;NaN;;;;0 / 0;144067;2021-03-12 21:40:01:445
-1.0461;2.7212;9.272;-0.7317;2.7359;9.3888;0.0638;0.2759;-0.3571;-0.8752;0.2033;-1.2553;2.7;-39.36;-14.52;-11.35;107.05;-16.2;4.46;2.0;47.196;;;;NaN;;;;0 / 0;144567;2021-03-12 21:40:01:945
-0.7634;2.8649;9.799;-0.5601;1.9494;9.5946;-0.4768;1.5287;-0.6424;-1.5465;-0.5466;-0.9266;2.5;-32.74;-36.64;-7.72;136.38;-11.47;3.34;2.0;37.336;;;;NaN;;;;0 / 0;145067;2021-03-12 21:40:02:445
1.1003;1.1593;10.6278;-0.6873;2.4398;9.4734;0.6248;-0.2773;-0.8684;-0.8548;-0.0543;-0.5838;1.8;-27.0;-43.22;-4.12;146.51;-14.41;4.15;2.0;53.264;;;;NaN;;;;0 / 0;145567;2021-03-12 21:40:02:945
0.4056;3.5356;11.0542;-0.9003;1.8895;9.5807;0.837;0.2825;0.0066;0.9425;-0.6474;-0.0044;2.1;-18.19;-47.4;-3.3;158.36;-11.11;5.37;2.0;52.32;;;;NaN;;;;0 / 0;146068;2021-03-12 21:40:03:446
-1.1898;4.0004;7.3796;-0.6177;3.4739;9.1499;0.019;0.1182;-1.1967;-0.6117;0.1146;-0.0658;1.8;-17.8;-46.5;-3.53;156.55;-20.75;3.86;2.0;64.906;;;;NaN;;;;0 / 0;146568;2021-03-12 21:40:03:946
-2.3636;-3.2004;11.38;-1.8277;-2.0024;9.4245;-0.5597;-0.5984;2.3391;0.542;-0.0095;-0.6462;4.5;-4.35;-40.01;-20.83;169.05;13.56;12.4;2.0;59.43;;;;NaN;;;;0 / 0;147066;2021-03-12 21:40:04:444
-0.0448;-0.2013;10.7476;-1.7576;-1.3588;9.5517;1.4724;1.0956;1.0563;-0.5227;-0.3589;0.2899;4.0;-6.22;-43.71;-18.25;167.93;5.26;12.26;2.0;59.539;;;;NaN;;;;0 / 0;147567;2021-03-12 21:40:04:945
-0.8305;-1.5571;9.6457;-2.4885;-0.8845;9.4443;-0.337;0.1816;1.0925;-0.1282;0.2006;1.0474;4.3;-12.71;-41.07;-23.17;156.57;5.17;14.76;2.0;66.882;;;;NaN;;;;0 / 0;148067;2021-03-12 21:40:05:445
-1.07;0.8192;8.3713;-1.0876;0.9758;9.6972;-0.2175;-1.1884;0.094;0.2146;0.5377;-1.3562;3.9;-6.81;-48.06;-13.45;169.77;-5.71;6.4;2.0;56.748;;;;NaN;;;;0 / 0;148567;2021-03-12 21:40:05:945
-1.4916;-1.3511;11.2123;-1.7493;-0.7747;9.6182;-1.6001;-2.0233;2.8252;3.705;-0.8083;-1.5106;7.3;13.09;-35.94;-18.84;188.47;22.37;18.73;2.0;49.462;;;;NaN;;;;0 / 0;149067;2021-03-12 21:40:06:445
-0.2987;0.5892;9.6792;-1.8652;-1.1365;9.5603;0.4697;0.6289;-1.304;1.088;-0.6684;-0.2087;5.2;19.96;-33.93;-12.51;205.65;6.65;11.04;2.0;58.798;;;;NaN;;;;0 / 0;149568;2021-03-12 21:40:06:946
0.2475;0.3928;4.9649;-1.4781;2.0035;9.4853;2.6183;-3.309;1.7199;0.3424;1.8925;-0.8741;3.6;27.38;-26.5;-1.66;226.33;-11.79;8.86;2.0;67.41;;;;NaN;;;;0 / 0;150067;2021-03-12 21:40:07:445
-2.4642;2.1846;7.3987;-1.2107;-0.4455;9.7214;-1.1151;-0.4092;1.0562;3.0023;-0.201;-1.8933;3.0;14.87;10.59;-16.33;308.27;2.6;7.1;2.0;58.994;;;;NaN;;;;0 / 0;150567;2021-03-12 21:40:07:945
-2.1097;0.2586;10.12;-1.6741;0.2758;9.6588;-0.2343;-0.9586;2.0283;3.0501;-0.9923;-1.3603;3.1;13.39;17.49;-5.33;321.19;16.6;15.44;2.0;62.353;;;;NaN;;;;0 / 0;151067;2021-03-12 21:40:08:445
-1.7887;2.2948;9.3534;-2.4448;2.1338;9.2542;0.5265;0.1013;0.0849;2.4533;-0.5596;-1.0746;3.6;-2.25;18.81;-14.71;19.34;2.11;17.78;2.0;58.382;;;;NaN;;;;0 / 0;151567;2021-03-12 21:40:08:945
-2.445;0.2251;5.5159;-3.224;-0.8686;9.2207;2.2966;-1.6206;-0.1863;3.598;-0.3092;-0.6294;3.1;-8.43;19.48;-14.17;34.09;5.08;19.27;2.0;57.346;;;;NaN;;;;0 / 0;152067;2021-03-12 21:40:09:445
-0.4712;-0.5415;8.424;-1.9541;0.2044;9.6078;-0.8374;-1.9017;1.7137;3.4634;-0.3736;0.6661;4.3;-2.51;19.53;-13.16;15.28;-1.19;11.5;2.0;57.194;;;;NaN;;;;0 / 0;152567;2021-03-12 21:40:09:945
0.3816;2.5918;7.2215;-0.8471;-0.2096;9.7678;-0.1373;1.2263;8.783;0.5238;-1.2449;-1.3206;8.5;-0.54;22.72;-2.37;3.4;-4.36;11.18;2.0;44.675;;;;NaN;;;;0 / 0;153067;2021-03-12 21:40:10:445
-2.4019;1.7055;14.7672;-2.8409;-0.9583;9.3371;1.0494;1.8082;-0.6383;1.7741;-1.3345;-0.8972;58.9;-13.78;24.98;-1.87;29.12;5.61;16.92;2.0;50.632;;;;NaN;;;;0 / 0;153568;2021-03-12 21:40:10:946
-0.5814;-0.0911;6.5411;-2.9026;1.0115;9.3125;2.2131;-2.5565;-1.4906;2.4806;-0.4073;-0.4423;400.3;-3.56;20.53;-10.19;17.35;-5.92;17.31;2.0;57.222;;;;NaN;;;;0 / 0;154067;2021-03-12 21:40:11:445
-0.3035;1.2168;6.5795;-2.003;1.1996;9.5247;1.709;-0.8464;-1.8195;2.2152;-1.4991;-0.3502;115.9;-23.43;12.25;-9.11;63.01;-7.03;11.88;2.0;55.279;;;;NaN;;;;0 / 0;154568;2021-03-12 21:40:11:946
2.5759;0.3928;10.1727;0.1838;-0.0671;9.8047;2.4413;0.453;0.3312;-0.0844;0.015;-0.1023;39.3;-20.55;14.21;-1.58;56.34;-0.68;1.71;2.0;56.945;;;;NaN;;;;0 / 0;155067;2021-03-12 21:40:12:445
-0.0591;-0.7475;9.3199;-0.0607;-0.5647;9.7902;-0.8501;-0.8359;0.2256;-0.0676;0.4613;0.2294;109.7;-30.51;8.71;-0.85;73.92;3.3;0.36;2.0;54.37;;;;NaN;;;;0 / 0;155567;2021-03-12 21:40:12:945
-2.239;0.364;11.3896;-1.3359;0.4639;9.7041;-0.7498;0.4042;0.5988;0.5958;0.4445;-0.5417;1430.2;-37.1;-1.92;-8.28;93.13;1.52;8.32;2.0;47.581;;;;NaN;;;;0 / 0;156067;2021-03-12 21:40:13:445
-0.9934;1.5666;9.2816;-1.3452;1.4829;9.6001;0.3103;0.5553;-0.4885;-0.2077;0.094;-0.9982;2297.2;-40.43;-13.92;-6.61;108.56;-8.7;7.98;2.0;47.559;;;;NaN;;;;0 / 0;156567;2021-03-12 21:40:13:945
0.7314;0.4838;10.647;-1.5885;-0.0859;9.6768;1.2831;0.1495;-1.0323;-0.4678;-0.0771;0.4006;1157.2;-41.14;-13.63;-8.59;108.33;-2.08;6.11;2.0;53.903;;;;NaN;;;;0 / 0;157066;2021-03-12 21:40:14:444
-0.8497;0.6659;10.3643;-0.8611;0.6705;9.7457;0.1018;-0.1646;1.8701;0.6831;0.4324;0.1373;261.2;-43.54;-9.73;-7.74;102.36;-3.65;6.27;2.0;52.547;;;;NaN;;;;0 / 0;157567;2021-03-12 21:40:14:945
-3.2212;-2.4722;13.7276;-1.5538;-1.4546;9.5729;-0.7227;-0.6214;2.2831;-0.3628;0.2225;-2.5578;4.0;-21.83;-43.74;-14.25;151.99;8.53;9.22;2.0;66.789;;;;NaN;;;;0 / 0;158067;2021-03-12 21:40:15:445
-0.2172;2.3427;6.6513;-1.6165;3.757;8.913;2.1943;-0.7467;-2.289;-0.1192;1.7054;0.0284;6.7;-5.94;-48.53;8.08;174.75;-22.53;10.28;2.0;60.664;;;;NaN;;;;0 / 0;158567;2021-03-12 21:40:15:945
-2.6511;-1.2745;13.0616;-1.3819;-1.061;9.6506;-1.0494;0.708;3.9725;0.0427;-0.2891;-0.3992;2.4;-0.04;-44.33;-11.69;177.12;5.66;10.88;2.0;68.108;;;;NaN;;;;0 / 0;159068;2021-03-12 21:40:16:446
-0.04;3.5117;9.1953;-0.7285;4.1252;8.8669;0.9172;-2.924;-3.2571;-0.6017;-0.3284;-0.7422;1.8;-6.71;-49.37;5.26;172.01;-24.88;4.7;2.0;65.199;;;;NaN;;;;0 / 0;159567;2021-03-12 21:40:16:945
-1.276;-0.5031;5.7794;-1.7174;-1.9935;9.4471;1.8298;-3.396;1.1428;1.6169;1.0413;-0.3345;4.2;12.83;-38.86;-12.55;194.56;21.52;8.88;2.0;64.844;;;;NaN;;;;0 / 0;160067;2021-03-12 21:40:17:445
-1.2186;0.0526;15.2463;-0.6256;0.2604;9.7832;-1.6775;1.7329;5.6427;-0.5958;0.3017;1.322;3.0;3.64;-43.86;-12.92;184.15;-1.52;3.66;2.0;62.731;;;;NaN;;;;0 / 0;160567;2021-03-12 21:40:17:945
-1.4389;2.5008;9.5067;-1.7495;2.1695;9.4023;0.2024;0.7639;-1.0393;-1.2145;0.6173;0.8791;3.3;-5.41;-50.16;-5.86;172.86;-19.74;6.68;2.0;60.38;;;;NaN;;;;0 / 0;161067;2021-03-12 21:40:18:445
-2.766;0.4407;7.2742;-0.8963;1.3881;9.6665;-0.162;-1.6098;1.1581;0.1968;1.2012;-0.1416;3.3;-10.48;-49.04;-14.08;166.69;-1.84;6.35;2.0;57.019;;;;NaN;;;;0 / 0;161567;2021-03-12 21:40:18:945
-1.07;2.6781;7.7005;-1.0406;1.6876;9.6041;1.6663;0.6375;-1.7527;0.0098;0.3284;0.7561;3.0;-30.93;-38.83;-18.55;138.81;-8.5;1.19;2.0;58.49;;;;NaN;;;;0 / 0;162066;2021-03-12 21:40:19:444
-0.888;1.2839;11.1596;-2.0798;1.2059;9.5074;1.125;0.7497;2.2027;-0.4053;-1.1521;-2.6021;3.6;-16.89;-44.19;-22.67;152.5;-7.06;12.34;2.0;47.501;;;;NaN;;;;0 / 0;162566;2021-03-12 21:40:19:944
1.795;-0.3307;10.0242;-0.7297;0.8577;9.7418;0.1655;-1.5646;-1.0278;-0.3824;0.5301;0.4942;3.3;9.68;-46.59;-15.01;192.8;-10.12;0.33;2.0;39.026;;;;NaN;;;;0 / 0;163067;2021-03-12 21:40:20:445
-3.9877;2.0648;4.9314;-4.1069;1.9946;8.679;-0.0318;2.1443;3.2811;0.4868;-0.581;-0.2612;5.8;15.28;-47.69;-1.49;197.53;-9.89;6.56;2.0;54.336;;;;NaN;;;;0 / 0;163567;2021-03-12 21:40:20:945
10.4331;8.087;9.3965;0.4679;3.4277;9.1762;0.0292;-2.1108;-0.9199;0.5118;-1.1336;-0.0534;3.4;5.3;-51.83;-3.66;184.95;-20.87;12.06;2.0;50.559;;;;NaN;;;;0 / 0;164067;2021-03-12 21:40:21:445
3.3616;0.2107;16.7267;2.7688;2.0503;9.1815;0.1456;-1.9482;8.1371;-1.1239;-1.6576;-0.2012;2.4;21.42;-29.96;-18.75;223.68;-12.07;-16.78;2.0;68.879;;;;NaN;;;;0 / 0;164567;2021-03-12 21:40:21:945
2.8633;1.9307;9.5451;2.2927;2.5752;9.1805;0.5547;-0.7458;-0.3235;-0.0729;-0.859;-1.3916;2.4;24.01;-11.39;-21.28;257.34;-16.18;-12.31;2.0;63.621;;;;NaN;;;;0 / 0;165067;2021-03-12 21:40:22:445
-0.2268;2.5583;8.4863;-0.0903;2.2678;9.5404;0.4726;-0.0727;0.5108;0.4298;0.09;-0.311;3.3;16.17;10.4;-20.47;304.94;-6.02;-3.21;2.0;65.356;;;;NaN;;;;0 / 0;165570;2021-03-12 21:40:22:948
-2.6894;-0.6085;11.1452;-2.4412;-2.5384;9.1525;-0.1773;1.3586;0.2731;-1.2974;-0.0078;-1.885;2.7;-6.5;28.2;-6.23;17.72;15.0;14.93;2.0;45.232;;;;NaN;;;;0 / 0;166067;2021-03-12 21:40:23:445
-2.8475;-2.5345;11.5429;-1.1439;-2.4712;9.421;-1.988;-0.0109;2.2708;-3.799;0.4524;-0.0415;2.7;-12.78;22.65;-14.91;37.9;14.6;6.92;2.0;44.058;;;;NaN;;;;0 / 0;166567;2021-03-12 21:40:23:945
0.7649;0.891;11.1261;-1.6512;-0.7249;9.6394;0.4439;0.3583;0.3616;-0.6423;-0.5908;1.4614;3.0;-0.76;22.49;-12.39;7.88;-1.99;10.15;2.0;51.188;;;;NaN;;;;0 / 0;167067;2021-03-12 21:40:24:445
0.511;1.7247;5.0368;-0.3635;5.3579;8.2056;0.6435;-3.5419;-3.0168;3.3188;1.207;0.376;2.4;12.26;4.35;-25.47;308.98;-15.61;-2.13;2.0;48.546;;;;NaN;;;;0 / 0;167567;2021-03-12 21:40:24:945
-0.2364;2.2565;11.1357;-0.4186;1.3991;9.6973;-0.2404;1.1918;0.8883;-0.798;-1.1202;-1.2918;3.0;-1.85;19.08;-16.73;7.34;-8.2;2.47;2.0;59.991;;;;NaN;;;;0 / 0;168068;2021-03-12 21:40:25:446
1.4404;-0.5894;10.7859;-0.5982;2.5463;9.4514;-1.6926;-0.6857;-2.2674;-0.0165;-1.0834;0.1006;3.0;-21.26;13.68;-18.61;50.76;-15.05;3.62;2.0;54.676;;;;NaN;;;;0 / 0;168567;2021-03-12 21:40:25:945
0.5589;2.1367;7.3604;-0.2005;0.6024;9.7861;1.3411;1.3671;-1.2502;0.4073;-0.5881;0.9296;3.3;-5.48;19.17;-13.22;14.92;-3.52;1.17;2.0;41.658;;;;NaN;;;;0 / 0;169067;2021-03-12 21:40:26:445
0.2139;-0.5367;8.1126;1.3169;2.1787;9.4705;0.5938;-1.8621;2.4201;-0.2283;-0.2039;-0.6512;2.7;-1.09;17.04;-16.54;3.04;-9.3;0.12;2.0;55.052;;;;NaN;;;;0 / 0;169572;2021-03-12 21:40:26:950
0.1469;-0.4888;13.9048;-1.0728;-2.8103;9.3339;-0.4087;2.0439;3.69;-0.9041;-1.2707;-0.951;4.0;0.94;22.49;4.97;356.02;16.65;6.56;2.0;55.201;;;;NaN;;;;0 / 0;170067;2021-03-12 21:40:27:445
-0.2172;0.3017;12.3526;-2.892;3.8323;8.551;0.378;-1.4418;-5.327;-0.5767;2.0925;-1.6322;2.1;-10.34;20.17;-10.97;31.48;-23.0;18.69;2.0;52.843;;;;NaN;;;;0 / 0;170567;2021-03-12 21:40:27:945
0.8559;-1.0158;6.6082;-1.425;3.5527;9.0287;3.0921;-4.0849;-0.9374;0.9254;0.181;-1.0547;3.3;-7.67;18.37;-15.94;22.02;-9.31;0.8;2.0;61.282;;;;NaN;;;;0 / 0;171068;2021-03-12 21:40:28:446
1.244;-5.0306;13.3683;1.6395;-2.2812;9.3957;-0.6131;-3.601;3.4116;-3.1529;0.6013;-2.6432;5.8;-37.59;-6.6;2.29;99.78;-6.71;-8.44;2.0;63.3;;;;NaN;;;;0 / 0;171567;2021-03-12 21:40:28:945
-0.2268;-4.0628;12.5634;0.8167;-5.2053;8.2709;-0.3201;3.7981;4.6524;-5.9536;3.0E-4;-0.0028;2.7;-27.31;-35.37;-14.36;146.47;32.06;-5.64;2.0;64.923;;;;NaN;;;;0 / 0;172067;2021-03-12 21:40:29:445
2.643;1.03;7.1113;-0.015;-0.8308;9.7714;1.6758;-0.7625;0.3133;3.0667;0.0696;0.2132;3.0;-32.1;-34.9;-7.79;138.0;4.86;0.09;2.0;65.764;;;;NaN;;;;0 / 0;172567;2021-03-12 21:40:29:945
-0.9119;-0.5558;9.5403;0.8535;-0.3189;9.7642;0.9372;-2.0373;0.0589;0.7766;-1.002;-2.989;2.7;-4.2;-47.76;-4.97;175.78;1.86;-5.0;2.0;63.103;;;;NaN;;;;0 / 0;173067;2021-03-12 21:40:30:445
-0.8401;-0.3163;8.7162;1.158;-0.8102;9.7043;-1.3524;0.5587;-0.9976;-0.6764;-0.2598;-0.4026;2.7;6.73;-43.22;-10.71;190.18;10.62;-4.99;2.0;64.028;;;;NaN;;;;0 / 0;173566;2021-03-12 21:40:30:944
4.3102;-2.2327;12.1801;1.5056;-0.2191;9.6879;1.72;-1.6674;1.2479;1.8564;-1.0157;0.226;2.7;-8.64;-48.33;-7.02;171.65;10.35;-13.19;2.0;59.462;;;;NaN;;;;0 / 0;174067;2021-03-12 21:40:31:445
1.5123;3.8375;13.4737;0.4115;0.687;9.7739;0.322;4.3857;2.6362;0.1096;0.488;0.6833;2.1;-18.02;-46.8;-8.57;157.76;-7.63;4.43;2.0;59.789;;;;NaN;;;;0 / 0;174567;2021-03-12 21:40:31:945
-0.04;1.9163;9.0756;0.1756;0.9922;9.7548;0.4195;1.6732;2.0576;-0.0251;-0.1359;0.2369;2.7;-18.44;-45.58;-8.51;157.52;-7.62;2.83;2.0;59.659;;;;NaN;;;;0 / 0;175067;2021-03-12 21:40:32:445
-2.6079;-3.1094;9.4205;-2.537;-2.5289;9.129;-0.0428;-0.0669;0.4853;-1.5374;1.2981;-0.7591;3.9;-6.38;-40.42;-20.49;169.28;3.09;5.13;2.0;61.871;;;;NaN;;;;0 / 0;175567;2021-03-12 21:40:32:945
-1.2521;-1.126;9.981;-0.9109;-0.8557;9.7267;-0.3808;-0.1723;0.2815;1.795;-1.4184;-0.7707;3.3;-3.19;-43.92;-14.19;171.9;16.01;15.01;2.0;60.618;;;;NaN;;;;0 / 0;176066;2021-03-12 21:40:33:444
-0.1406;-1.4086;10.0194;-0.614;-2.5164;9.4584;-0.3924;-1.9231;1.7095;3.6392;-0.7555;1.7001;4.0;-5.97;-46.54;-9.38;172.15;14.87;3.71;2.0;66.434;;;;NaN;;;;0 / 0;176568;2021-03-12 21:40:33:946
0.1133;-3.4256;11.0878;-3.211;-2.0838;9.0287;2.8105;0.3124;-0.7062;-0.5802;-0.58;-0.7267;3.3;-18.69;-39.08;-20.74;148.49;-4.19;12.56;2.0;62.455;;;;NaN;;;;0 / 0;177067;2021-03-12 21:40:34:445
-0.3466;-2.9561;11.3656;0.014;-2.4434;9.4974;-0.6016;-0.631;1.4836;-0.0243;-0.4278;-1.7416;3.0;-15.25;-41.28;-17.92;158.35;16.25;8.04;2.0;61.602;;;;NaN;;;;0 / 0;177567;2021-03-12 21:40:34:945
0.5349;-0.4217;8.4575;-0.3633;-1.2902;9.7146;0.7085;-0.1287;-1.2112;0.3386;0.0828;0.1339;2.7;-4.78;-44.76;-13.88;173.36;9.83;1.8;2.0;67.9;;;;NaN;;;;0 / 0;178067;2021-03-12 21:40:35:445
0.487;-2.5153;13.0089;0.8287;-1.0998;9.7095;-0.123;-0.3214;2.6937;-0.1922;1.3944;0.6785;3.0;-7.34;-44.48;-13.9;172.73;6.44;-4.88;2.0;65.518;;;;NaN;;;;0 / 0;178567;2021-03-12 21:40:35:945
0.5828;-1.7823;10.2541;1.1238;-1.9069;9.5536;-1.6489;0.3021;0.9136;-0.0682;-0.0137;0.2501;3.0;-5.58;-43.08;-16.29;174.06;10.19;-4.57;2.0;60.889;;;;NaN;;;;0 / 0;179067;2021-03-12 21:40:36:445
3.1652;-2.0889;10.4937;-0.2326;-0.2338;9.8011;2.291;-1.9925;1.4684;0.3255;0.7895;0.1428;3.0;-7.16;-45.28;-14.19;173.01;6.9;-5.24;2.0;68.146;;;;NaN;;;;0 / 0;179567;2021-03-12 21:40:36:945
-1.9276;-2.501;10.4553;-1.1222;-3.8009;8.9702;-0.965;1.6438;0.9748;-2.3187;0.0285;-0.5716;4.2;-1.43;-37.09;-24.46;174.75;5.22;6.2;2.0;62.123;;;;NaN;;;;0 / 0;180067;2021-03-12 21:40:37:445
-2.6127;-0.7906;7.049;-1.9235;0.8481;9.5787;1.4519;-1.4336;-1.2869;-0.1996;0.0985;0.1792;3.0;-11.4;-45.07;-13.86;162.83;-4.96;11.35;2.0;60.834;;;;NaN;;;;0 / 0;180567;2021-03-12 21:40:37:945
-1.3144;-2.8507;10.2493;-1.4738;-0.4142;9.6864;1.7368;1.8462;-1.9641;-4.4544;0.9421;-0.4322;4.3;-11.08;-43.48;-17.23;164.65;-4.63;1.35;2.0;46.159;;;;NaN;;;;0 / 0;181067;2021-03-12 21:40:38:445
0.4343;-2.5968;10.6709;-0.3601;0.1627;9.7987;-1.1239;-0.8686;-0.8941;-3.8099;1.6569;-0.3722;2.7;5.47;-43.86;-10.97;190.55;-25.0;-8.84;2.0;60.243;;;;NaN;;;;0 / 0;181567;2021-03-12 21:40:38:945
-2.8666;3.871;9.6313;-1.9329;0.2132;9.6119;-1.2984;3.4107;1.869;-1.8741;0.278;-0.4475;2.4;12.12;-40.97;-10.87;195.77;-18.0;10.1;2.0;66.138;;;;NaN;;;;0 / 0;182067;2021-03-12 21:40:39:445
0.075;1.3941;4.9649;-0.6428;4.3191;8.7808;1.3202;-4.5855;0.0451;0.286;0.5688;-0.4421;2.1;7.15;-47.08;5.6;189.44;-26.13;4.19;2.0;63.945;;;;NaN;;;;0 / 0;182567;2021-03-12 21:40:39:945
1.4452;-0.7379;9.5115;0.3915;-0.7192;9.7724;-1.2218;1.2442;4.5163;1.2706;0.6757;-0.2185;4.6;18.7;-29.36;-18.1;212.44;0.37;1.55;2.0;64.57;;;;NaN;;;;0 / 0;183067;2021-03-12 21:40:40:445
-0.3083;0.5652;9.7846;0.0807;-0.3253;9.8009;-0.5889;0.9939;0.2821;-0.8636;-0.6018;0.5067;4.9;19.76;-31.58;-15.44;211.75;-3.98;3.47;2.0;64.568;;;;NaN;;;;0 / 0;183567;2021-03-12 21:40:40:945
2.1303;1.3749;10.2158;0.3012;4.6087;8.651;2.0869;-3.6247;0.5788;1.5485;0.6371;0.1313;3.0;14.47;-44.05;-1.2;198.7;-19.39;-3.68;2.0;60.966;;;;NaN;;;;0 / 0;184067;2021-03-12 21:40:41:445
-3.6236;-2.2087;11.7297;-0.891;0.7324;9.7386;0.6702;4.1227;1.6938;-1.0043;0.6295;-2.9813;5.2;24.21;-25.23;-12.63;223.66;-4.28;5.23;2.0;66.938;;;;NaN;;;;0 / 0;184567;2021-03-12 21:40:41:945
-2.2438;-3.4927;13.6845;-3.8226;0.7555;8.9993;3.3967;2.0998;-2.4642;-4.6841;-0.4519;-0.2184;12.9;29.35;-9.01;2.32;257.55;-23.61;13.43;2.0;65.063;;;;NaN;;;;0 / 0;185070;2021-03-12 21:40:42:448
-5.0992;1.2456;10.7476;-3.2298;2.785;8.8308;-1.0996;-1.0437;-2.0386;-3.6629;0.5344;0.9535;3.3;25.4;-6.25;-1.85;277.24;-37.03;25.42;2.0;61.731;;;;NaN;;;;0 / 0;185566;2021-03-12 21:40:42:944
0.923;-5.1504;15.9745;-3.389;-1.9514;8.9932;2.5723;1.284;0.0639;-2.3795;-1.4987;-2.2779;15.7;25.08;-6.11;0.49;255.35;-0.22;24.27;2.0;58.766;;;;NaN;;;;0 / 0;186067;2021-03-12 21:40:43:445
-5.7843;-1.1068;9.775;-2.6681;-0.8999;9.3937;-4.562;-0.928;-2.1887;-0.8279;0.5826;-3.4827;4.0;-18.4;15.59;-12.46;51.65;-1.69;14.83;2.0;48.45;;;;NaN;;;;0 / 0;186568;2021-03-12 21:40:43:946
-0.9359;-1.4278;10.5224;-4.1356;-1.2382;8.8054;3.3808;1.7387;0.5946;-1.2364;-0.4978;-0.5482;3.6;-8.04;18.9;-8.2;28.63;1.31;20.68;2.0;61.114;;;;NaN;;;;0 / 0;187067;2021-03-12 21:40:44:445
-2.1145;3.4159;8.0215;-2.4834;3.9972;8.6038;1.1382;-0.0425;0.5342;-0.3788;-0.409;-0.6554;2.7;-20.21;4.43;-27.16;66.64;-20.76;14.33;2.0;51.128;;;;NaN;;;;0 / 0;187567;2021-03-12 21:40:44:945
-2.354;1.0491;10.8961;-1.083;-0.0668;9.7464;-1.3088;0.9907;1.2518;-1.44;-0.8494;-0.9256;3.0;-34.58;3.4;-18.36;84.05;-6.91;14.71;2.0;53.669;;;;NaN;;;;0 / 0;188067;2021-03-12 21:40:45:445
-1.827;0.4694;7.7437;-1.9969;1.7264;9.4447;2.1191;-0.4563;-3.2549;-2.1938;1.2734;0.4758;3.3;-31.38;3.9;-22.14;79.29;-10.14;11.94;2.0;62.36;;;;NaN;;;;0 / 0;188567;2021-03-12 21:40:45:945
-4.4285;1.2408;11.495;-1.4678;1.3315;9.6043;-0.5926;0.4111;-1.9064;1.4969;0.7712;0.2993;2.7;-30.39;5.4;-23.32;77.37;-7.8;8.69;2.0;47.717;;;;NaN;;;;0 / 0;189067;2021-03-12 21:40:46:445
-0.9503;2.3523;5.3434;-0.8291;3.846;8.9828;0.179;-3.2411;0.6286;0.8824;2.3965;0.8949;3.3;-3.33;11.41;-26.84;13.76;-10.29;1.76;2.0;63.431;;;;NaN;;;;0 / 0;189567;2021-03-12 21:40:46:945
-4.0548;-2.4435;11.7585;-1.7251;-2.2214;9.3947;0.225;-0.3499;1.9264;-1.1942;-1.2105;-0.9226;2.7;-17.22;21.68;-10.45;41.99;3.9;25.51;2.0;58.109;;;;NaN;;;;0 / 0;190067;2021-03-12 21:40:47:445
-0.476;1.9546;9.3582;-2.6569;2.3018;9.1549;2.54;-0.2042;-0.3671;-0.2304;-0.0721;0.1907;2.7;-23.54;5.6;-25.88;63.24;-21.66;8.1;2.0;56.011;;;;NaN;;;;0 / 0;190567;2021-03-12 21:40:47:945
-0.543;2.3379;10.0529;0.1274;1.1134;9.7424;-0.708;0.5654;0.6229;0.6578;0.4316;0.8382;2.7;-21.72;13.39;-18.13;56.08;-5.3;-0.76;2.0;54.025;;;;NaN;;;;0 / 0;191067;2021-03-12 21:40:48:445
0.4056;3.6171;12.5586;-1.1535;4.0478;8.8575;-0.2641;-1.1488;-0.9998;-0.0288;0.5246;0.5714;2.7;1.68;10.73;-23.9;2.94;-22.87;7.15;2.0;60.776;;;;NaN;;;;0 / 0;191567;2021-03-12 21:40:48:945
-1.0605;0.3161;12.6592;-1.0881;-0.4381;9.7362;-0.7994;1.0021;3.5906;-1.7803;-0.5717;-0.9327;3.0;-2.36;21.47;-11.26;9.16;-14.76;9.06;2.0;68.761;;;;NaN;;;;0 / 0;192067;2021-03-12 21:40:49:445
-2.2774;-0.6564;11.9645;-1.3837;-0.5888;9.6907;-1.5199;0.4748;1.6148;-2.511;-0.0837;-0.6546;3.6;-11.02;19.92;-12.75;33.42;3.44;8.13;2.0;67.438;;;;NaN;;;;0 / 0;192567;2021-03-12 21:40:49:945
0.0223;2.4433;10.8003;-1.0526;3.9112;8.9311;1.4566;-0.839;-1.38;0.903;-0.4228;-0.922;2.7;-10.42;10.5;-24.88;33.37;-23.5;6.72;2.0;55.741;;;;NaN;;;;0 / 0;193067;2021-03-12 21:40:50:445
-2.5265;1.9498;6.7615;-2.2458;1.9293;9.349;1.33;-0.7466;-1.0266;-0.7476;-1.0686;0.3197;3.3;-9.89;15.78;-19.39;36.35;0.61;5.05;2.0;60.978;;;;NaN;;;;0 / 0;193567;2021-03-12 21:40:50:945
0.0702;3.0518;8.9079;-0.2296;2.4195;9.5007;0.2993;0.4455;-0.524;-0.3508;-0.0774;0.0148;3.0;-11.26;15.0;-19.52;31.31;-14.72;2.44;2.0;59.88;;;;NaN;;;;0 / 0;194067;2021-03-12 21:40:51:445
-0.1885;2.3858;9.133;-1.033;2.7352;9.3607;0.4539;-0.58;0.2228;0.3545;0.3673;0.5384;3.3;-3.88;14.95;-20.07;16.54;-14.08;5.02;2.0;64.222;;;;NaN;;;;0 / 0;194567;2021-03-12 21:40:51:945
-1.3671;2.702;9.478;-1.1087;2.7362;9.3517;-0.408;-0.0794;0.4326;-0.044;0.1081;0.1179;3.3;-2.78;14.87;-19.39;14.74;-17.83;6.85;2.0;62.943;;;;NaN;;;;0 / 0;195067;2021-03-12 21:40:52:445
-1.736;2.7308;9.4349;-1.3685;2.8192;9.2925;0.0865;0.0411;-0.1747;0.0037;-0.0274;-0.2237;3.3;-2.91;15.26;-19.73;15.52;-16.53;7.34;2.0;62.295;;;;NaN;;;;0 / 0;195566;2021-03-12 21:40:52:944
-1.4725;2.702;9.569;-1.618;2.6494;9.3023;0.1773;0.0181;0.1719;-0.0491;0.009;0.0543;3.6;-2.95;15.75;-19.84;17.28;-15.74;9.95;2.0;49.844;;;;NaN;;;;0 / 0;196067;2021-03-12 21:40:53:445
-1.8414;2.52;10.2158;-2.1058;2.0651;9.3526;0.4003;0.8779;-0.7211;-0.1612;-0.39;-0.6716;2.7;-6.43;16.93;-18.35;26.08;-12.16;12.69;2.0;43.577;;;;NaN;;;;0 / 0;196566;2021-03-12 21:40:53:944
-1.5108;2.8937;10.0002;-1.6235;1.6085;9.5366;-0.7571;1.2624;0.4723;0.1777;-0.2846;-0.0362;2.7;-10.52;17.34;-17.61;36.32;-9.55;10.96;2.0;69.073;;;;NaN;;;;0 / 0;197067;2021-03-12 21:40:54:445
0.4247;1.4372;10.0433;-1.0561;2.011;9.54;0.1372;-0.502;-1.0135;-0.0357;0.1375;0.2859;2.4;-7.81;17.63;-16.35;25.14;-11.83;6.32;2.0;53.189;;;;NaN;;;;0 / 0;197567;2021-03-12 21:40:54:945
-2.0857;1.4037;8.9845;-0.6091;1.1477;9.7202;-1.3029;-0.1887;1.0444;-0.1566;0.0946;-0.6474;2.4;-20.44;15.67;-14.48;50.17;-6.72;3.59;2.0;61.931;;;;NaN;;;;0 / 0;198067;2021-03-12 21:40:55:445
1.2152;0.9006;8.5581;-1.139;2.4479;9.4277;2.2163;-1.3975;-1.2157;1.5956;0.3147;0.5442;2.4;-7.66;17.63;-17.62;25.01;-14.45;6.89;2.0;57.74;;;;NaN;;;;0 / 0;198570;2021-03-12 21:40:55:948
-3.0343;0.8623;11.4615;-1.6625;1.7981;9.496;-0.7415;-0.512;2.7982;0.18;0.1497;-2.2657;2.4;-24.94;11.73;-18.71;62.77;-16.39;14.65;2.0;64.104;;;;NaN;;;;0 / 0;199067;2021-03-12 21:40:56:445
-1.4102;0.3065;9.7271;-2.7123;0.755;9.3938;-1.2258;-0.458;-0.1784;-0.2148;0.1946;-0.6717;2.4;-37.52;-19.95;-19.03;114.85;-4.42;16.11;2.0;63.537;;;;NaN;;;;0 / 0;199566;2021-03-12 21:40:56:944
-0.773;-0.0097;10.4649;-1.6037;0.9249;9.6303;1.3577;-0.5579;0.1285;0.5463;0.0686;-1.9353;2.4;-30.58;-38.17;-11.63;138.81;-5.41;9.45;2.0;58.416;;;;NaN;;;;0 / 0;200068;2021-03-12 21:40:57:446
-4.9124;0.2826;11.7106;-2.6666;-0.229;9.4344;-2.1364;0.7163;2.4646;-0.1052;0.4657;0.2688;2.7;-7.34;-47.69;-8.72;169.2;1.34;15.78;2.0;54.659;;;;NaN;;;;0 / 0;200567;2021-03-12 21:40:57:945
-3.8823;1.1833;9.4253;-2.8993;0.1368;9.3673;-0.8435;1.0911;-0.0893;0.402;-0.234;-0.1826;2.1;4.7;-45.99;-3.98;184.57;-0.31;16.33;2.0;61.99;;;;NaN;;;;0 / 0;201066;2021-03-12 21:40:58:444
-2.7181;1.0108;10.5176;-2.1062;0.0141;9.5778;-0.6427;0.9504;0.4673;-0.3884;-0.2186;1.1825;2.4;-5.62;-47.54;-8.59;170.34;-1.48;15.06;2.0;42.029;;;;NaN;;;;0 / 0;201567;2021-03-12 21:40:58:945
-0.1454;1.0875;9.2911;-1.5125;1.5651;9.5621;1.2453;-0.7539;0.8364;0.6683;0.4146;0.6198;2.1;-20.4;-46.04;-6.66;155.05;-9.18;8.99;2.0;63.368;;;;NaN;;;;0 / 0;202077;2021-03-12 21:40:59:455
-1.0748;2.1942;8.5198;-1.418;1.3891;9.6036;-0.1461;-0.0332;1.2611;2.7478;-0.2278;-0.7579;2.4;-14.88;-46.35;-9.82;160.85;7.43;7.63;2.0;65.37;;;;NaN;;;;0 / 0;202567;2021-03-12 21:40:59:945
-0.246;-1.0541;8.1701;-1.1834;-1.4402;9.6279;-0.2931;-2.5888;2.5519;5.0689;0.3244;0.1882;4.2;-17.39;-44.44;-12.53;157.75;8.45;7.01;2.0;65.69;;;;NaN;;;;0 / 0;203067;2021-03-12 21:41:00:445
-3.4368;0.2203;7.255;-2.4865;-2.7033;9.0928;0.0697;-3.1964;1.4048;2.8376;-0.0304;-0.4907;3.3;-9.78;-45.98;-12.43;164.65;16.0;15.29;2.0;56.852;;;;NaN;;;;0 / 0;203567;2021-03-12 21:41:00:945
-0.9838;-1.1739;11.1405;-2.0562;-2.3935;9.2851;0.9701;-0.5999;2.4785;2.8646;-0.4517;-0.3711;4.6;-4.47;-39.44;-21.97;166.26;9.81;16.9;2.0;59.217;;;;NaN;;;;0 / 0;204067;2021-03-12 21:41:01:445
-0.7251;-1.9548;9.5642;-2.7729;-1.5975;9.2698;0.3554;0.787;-0.5635;2.7355;-0.4386;0.3688;4.8;-5.14;-41.45;-21.85;166.22;11.65;15.88;2.0;65.516;;;;NaN;;;;0 / 0;204567;2021-03-12 21:41:01:945
-0.2843;-0.4073;8.285;-0.7757;3.9394;8.9471;0.2934;-3.2381;2.7106;3.4418;0.2067;0.1213;3.0;-21.55;-47.62;-7.05;154.55;6.17;9.79;2.0;61.212;;;;NaN;;;;0 / 0;205067;2021-03-12 21:41:02:445
-3.1301;-1.2697;11.4231;-1.9918;-1.0024;9.5498;-0.2521;-1.3118;2.9307;1.789;0.458;-1.279;3.0;-20.77;-30.82;-29.54;143.72;17.15;12.69;2.0;56.829;;;;NaN;;;;0 / 0;205566;2021-03-12 21:41:02:944
-0.0017;-3.5166;11.907;-1.4444;-0.5734;9.6827;1.2559;0.3018;0.4012;5.1347;-0.369;-0.9122;4.2;-5.39;-41.53;-24.14;166.28;17.87;15.9;2.0;55.132;;;;NaN;;;;0 / 0;206067;2021-03-12 21:41:03:445
-0.8065;0.6419;10.6422;-1.6094;-0.6792;9.6498;1.1779;0.9758;0.6773;-3.9657;0.5779;-1.0153;5.5;11.47;-41.92;-16.42;190.91;0.2;9.83;2.0;62.903;;;;NaN;;;;0 / 0;206567;2021-03-12 21:41:03:945
0.2666;-2.4722;14.1252;-0.8962;-1.0454;9.7095;1.1086;-0.6508;4.1245;-2.9233;0.1956;1.5905;3.6;2.69;-44.27;-20.95;182.41;-22.3;4.41;2.0;66.525;;;;NaN;;;;0 / 0;207066;2021-03-12 21:41:04:444
-1.3862;3.8471;7.9784;-0.9307;4.5623;8.6307;0.0723;0.9323;-1.5706;-3.0708;-0.3787;-0.9573;4.2;0.6;-51.74;-1.92;181.42;-35.7;-0.58;2.0;64.394;;;;NaN;;;;0 / 0;207567;2021-03-12 21:41:04:945
-1.003;1.945;8.4479;-0.5282;3.7689;9.0381;-0.0716;-1.1342;-0.717;1.4342;-1.7878;-2.3049;2.4;24.86;-33.98;-5.58;223.07;-28.94;1.13;2.0;64.287;;;;NaN;;;;0 / 0;208067;2021-03-12 21:41:05:445
0.7457;2.9416;8.5917;0.2709;1.9187;9.6133;0.1504;0.4667;-0.7376;-0.2913;0.2206;0.3787;3.0;26.71;-23.4;-12.93;233.61;-11.28;-1.61;2.0;67.346;;;;NaN;;;;0 / 0;208567;2021-03-12 21:41:05:945
-0.5143;3.6985;6.6992;-1.3804;4.1039;8.799;1.069;-1.2778;-1.7662;2.6732;0.4058;0.2145;2.7;24.14;-34.45;1.57;218.54;-24.74;8.92;2.0;60.527;;;;NaN;;;;0 / 0;209067;2021-03-12 21:41:06:445
-0.6389;4.6903;7.4993;-0.8959;4.1154;8.8561;0.3655;-0.5691;-0.9595;1.8053;-1.7355;-1.7737;5.5;26.29;-23.84;-4.28;227.2;-5.45;9.75;2.0;58.755;;;;NaN;;;;0 / 0;209567;2021-03-12 21:41:06:945
-1.324;-0.4169;12.0843;-0.6901;1.613;9.6484;-0.579;-0.3623;3.8194;4.253;-1.0328;-1.2206;3.9;20.82;-3.43;-13.23;258.96;3.23;5.48;2.0;42.497;;;;NaN;;;;0 / 0;210068;2021-03-12 21:41:07:446
0.099;-3.0184;11.9358;-0.6642;-2.6828;9.4091;0.0643;1.0273;2.3206;-4.3829;0.3724;-0.3283;16.0;13.42;11.8;-5.13;308.2;15.88;4.04;2.0;34.807;;;;NaN;;;;0 / 0;210567;2021-03-12 21:41:07:945
0.511;-1.629;10.1439;-0.0664;-1.0744;9.7474;0.3359;1.0581;0.9706;-2.2953;-0.1219;-0.3374;7.6;9.65;14.14;-6.21;326.2;-9.35;0.8;2.0;50.068;;;;NaN;;;;0 / 0;211067;2021-03-12 21:41:08:445
0.5589;-2.0506;12.4628;-0.8668;-1.5402;9.6461;0.7967;0.4744;3.0001;-1.3329;0.0244;0.1659;8.2;10.1;15.67;-3.27;327.85;-22.5;-0.15;2.0;51.244;;;;NaN;;;;0 / 0;211568;2021-03-12 21:41:08:946
-1.4294;3.4446;7.7916;-1.1732;0.6342;9.7155;0.8058;0.5702;-0.7421;-0.688;-1.048;-0.648;3.3;2.78;18.18;-11.09;351.44;-30.58;-0.89;2.0;45.124;;;;NaN;;;;0 / 0;212067;2021-03-12 21:41:09:445
-1.7504;2.6685;8.539;-0.5713;1.3159;9.7012;0.6305;1.0201;-1.7475;-0.6888;-0.6629;-2.2664;3.4;-25.06;12.89;-15.66;60.21;-7.71;3.37;2.0;49.66;;;;NaN;;;;0 / 0;212567;2021-03-12 21:41:09:945
1.2248;0.7617;10.5272;0.8816;1.1248;9.702;0.0741;-0.2321;0.9405;-1.1319;0.5582;0.207;3.7;-33.46;7.85;-12.48;73.09;-6.59;-5.19;2.0;65.466;;;;NaN;;;;0 / 0;213067;2021-03-12 21:41:10:445
0.3912;0.4263;13.0185;-0.1896;-0.327;9.7994;0.5436;0.1346;3.1575;1.3631;0.1381;0.9494;3.0;-30.53;12.05;-15.01;62.44;-16.72;-1.25;2.0;53.565;;;;NaN;;;;0 / 0;213566;2021-03-12 21:41:10:944
-0.8209;3.1619;10.1871;0.0924;2.7538;9.4116;-1.0254;-0.3595;1.8762;0.7982;0.4043;1.0321;2.7;-16.26;13.91;-26.61;30.56;-23.9;-3.65;2.0;61.213;;;;NaN;;;;0 / 0;214067;2021-03-12 21:41:11:445
-1.1706;-0.7283;12.1418;-0.5736;2.2982;9.5163;-0.6964;-1.9597;1.6154;-3.6782;0.2639;1.099;2.7;-0.59;19.1;-21.01;5.53;-13.55;3.45;2.0;63.094;;;;NaN;;;;0 / 0;214568;2021-03-12 21:41:11:946
-0.7011;-0.9247;10.2254;0.0956;0.6368;9.7855;-0.418;1.4924;-0.8898;-2.7301;-0.1615;0.55;5.2;8.5;19.63;-10.03;338.35;-30.4;-4.3;2.0;54.214;;;;NaN;;;;0 / 0;215067;2021-03-12 21:41:12:445
0.1229;0.273;11.907;-0.1066;2.2063;9.5547;0.3281;-0.6472;-2.1076;-3.0579;0.6599;1.7622;3.9;22.4;0.57;-12.1;286.86;-28.81;0.03;2.0;67.076;;;;NaN;;;;0 / 0;215567;2021-03-12 21:41:12:945
0.1517;-0.1965;13.4305;-0.807;-1.3255;9.6831;0.3385;1.9991;1.3294;-2.4317;1.3237;1.3673;4.2;25.2;-18.19;-8.86;237.13;-10.26;1.54;2.0;65.285;;;;NaN;;;;0 / 0;216067;2021-03-12 21:41:13:445
-1.1754;-0.2444;9.5978;-1.9374;-0.6972;9.588;0.8769;-0.0209;-0.2678;1.685;-0.5031;-0.1518;12.6;23.48;-24.83;-5.13;221.88;-3.19;8.85;2.0;54.656;;;;NaN;;;;0 / 0;216568;2021-03-12 21:41:13:946
2.2549;-0.1965;12.1418;-0.0571;2.0478;9.5903;-0.1267;1.7712;0.058;-0.0227;-0.317;-0.6339;6.4;22.65;-19.02;-8.15;234.84;-15.56;5.89;2.0;65.996;;;;NaN;;;;0 / 0;217067;2021-03-12 21:41:14:445
0.2187;1.8157;9.0181;-0.2029;1.5247;9.6853;0.7045;-1.905;-0.7914;0.7291;0.4387;-0.8593;5.8;13.01;6.08;-11.12;294.09;1.06;0.21;2.0;68.618;;;;NaN;;;;0 / 0;217567;2021-03-12 21:41:14:945
-1.3192;1.9882;9.0708;-1.3318;1.039;9.6601;0.7854;0.4905;1.8592;0.3914;0.6603;-0.3953;7.9;12.29;9.96;-7.12;315.96;-8.34;8.75;2.0;63.279;;;;NaN;;;;0 / 0;218067;2021-03-12 21:41:15:445
-2.3684;2.2085;9.5307;-2.1478;2.2643;9.2968;-0.2116;-0.0428;0.1665;0.6354;-0.2677;-0.3689;5.2;5.13;12.39;-12.17;352.02;-10.2;13.89;2.0;67.517;;;;NaN;;;;0 / 0;218567;2021-03-12 21:41:15:945
-2.1528;3.4686;8.9222;-1.8147;3.0376;9.146;-0.3067;0.1921;-0.1066;0.1237;-0.0886;0.0418;4.6;1.09;12.55;-15.94;7.04;-18.04;11.22;2.0;66.061;;;;NaN;;;;0 / 0;219067;2021-03-12 21:41:16:445
-1.5012;2.2565;10.0864;-1.5684;1.8316;9.5056;-0.0445;0.7721;0.3978;-0.7412;-0.2858;0.1108;5.5;2.1;14.15;-12.36;0.6;-16.75;10.3;2.0;63.61;;;;NaN;;;;0 / 0;219566;2021-03-12 21:41:16:944
-0.0304;0.776;8.9462;-0.8424;0.806;9.7371;0.7686;-0.3493;0.7304;0.2569;-0.0725;0.1181;8.5;2.61;13.79;-8.37;351.44;-2.95;5.86;2.0;52.231;;;;NaN;;;;0 / 0;220066;2021-03-12 21:41:17:444
0.1469;1.236;10.4793;-1.0637;0.7446;9.7203;1.3717;1.1248;0.3899;0.0507;-0.2174;0.4222;8.2;3.88;14.16;-7.94;347.83;-4.74;5.89;2.0;60.371;;;;NaN;;;;0 / 0;220567;2021-03-12 21:41:17:945
1.9291;1.8732;8.7737;-0.0972;2.0853;9.5819;0.0076;-1.0912;0.4502;-0.2367;-0.2657;1.5735;8.8;12.29;8.0;-11.69;308.44;-7.68;-0.04;2.0;47.905;;;;NaN;;;;0 / 0;221067;2021-03-12 21:41:18:445
-1.5779;3.368;8.3425;-2.1691;3.098;9.0481;0.8187;0.0207;-0.2603;-0.1594;0.2951;0.1716;4.6;12.56;8.82;-10.57;320.85;-19.15;11.69;2.0;44.838;;;;NaN;;;;0 / 0;221567;2021-03-12 21:41:18:945
-0.1837;0.6659;8.7162;-2.1647;2.4512;9.2453;1.8996;-1.9592;-0.9703;0.5034;-0.9162;-0.6575;5.2;14.61;7.13;-8.97;308.04;-14.47;13.18;2.0;64.456;;;;NaN;;;;0 / 0;222067;2021-03-12 21:41:19:445
-2.7085;3.0038;8.285;-2.7849;2.9099;8.9413;0.4211;0.1301;-0.6148;-0.145;0.0197;0.112;4.6;12.46;10.04;-9.26;326.28;-17.26;17.3;2.0;65.613;;;;NaN;;;;0 / 0;222568;2021-03-12 21:41:19:946
1.0571;0.388;8.0695;-1.7295;2.7447;9.2545;-3.0064;-0.1428;2.9333;1.6722;-0.0088;1.1543;5.5;13.84;8.95;-7.14;310.7;-8.01;13.42;2.0;47.758;;;;NaN;;;;0 / 0;223067;2021-03-12 21:41:20:445
-2.9912;3.7321;7.7197;-2.8677;3.4706;8.7122;0.8868;-0.261;-0.739;-0.2105;0.4755;-0.0709;4.5;14.46;7.38;-9.56;315.43;-21.82;13.89;2.0;45.127;;;;NaN;;;;0 / 0;223567;2021-03-12 21:41:20:945
2.5136;2.1511;9.6026;-1.6166;2.1908;9.4211;3.3264;-0.5867;2.3077;1.384;-0.8438;1.497;5.2;16.16;3.96;-11.06;296.47;-12.91;9.74;2.0;60.518;;;;NaN;;;;0 / 0;224067;2021-03-12 21:41:21:445
-2.2007;3.7512;8.4623;-2.6444;3.8479;8.6239;0.5176;0.1937;0.5203;-0.1978;0.2538;0.0026;4.6;17.16;5.48;-8.27;304.49;-23.1;17.05;2.0;60.971;;;;NaN;;;;0 / 0;224568;2021-03-12 21:41:21:946
-4.8501;0.3784;10.3931;-2.7969;2.0389;9.1755;-1.5795;0.9963;-0.9778;-0.7077;-0.136;0.3895;4.9;19.14;3.97;-3.68;291.36;-17.27;17.29;2.0;61.554;;;;NaN;;;;0 / 0;225067;2021-03-12 21:41:22:445
-1.1323;0.8767;11.5381;-2.5738;3.2928;8.8715;4.5112;-1.5079;0.1808;0.9925;-1.4138;-3.3746;4.6;18.41;3.64;-7.52;294.77;-12.09;18.56;2.0;56.195;;;;NaN;;;;0 / 0;225568;2021-03-12 21:41:22:946
-0.9359;-2.7836;14.3552;0.8125;3.7545;9.023;-1.9702;-9.2049;6.9787;1.2466;-4.0323;-3.9633;3.7;-41.22;-25.16;-7.0;120.35;-18.72;12.46;2.0;54.919;;;;NaN;;;;0 / 0;226067;2021-03-12 21:41:23:445
-5.128;1.006;8.2755;-2.4661;2.2308;9.2256;-2.2737;-1.6218;-0.2012;-1.149;1.6558;3.2142;3.9;-36.14;-26.23;-17.56;120.77;-13.15;14.97;2.0;51.733;;;;NaN;;;;0 / 0;226567;2021-03-12 21:41:23:945
-2.033;-0.5319;8.1749;-2.7435;4.4384;8.3033;1.1803;-5.9124;2.9881;0.3993;2.1225;1.4446;3.9;-9.56;7.56;-24.36;49.7;-17.02;15.57;2.0;65.051;;;;NaN;;;;0 / 0;227067;2021-03-12 21:41:24:445
-0.9455;2.3858;9.8852;-4.5601;2.6111;8.28;3.0669;1.1878;2.3846;0.4549;-0.3944;-0.009;4.0;15.88;8.07;-2.84;311.24;-17.75;29.92;2.0;62.343;;;;NaN;;;;0 / 0;227567;2021-03-12 21:41:24:945
-3.9494;1.8253;8.4863;-1.7803;3.2171;9.0913;-1.9461;-1.6362;-0.7469;0.5239;-0.8647;-2.2963;3.9;-14.06;10.87;-21.52;47.07;-19.42;10.94;2.0;54.193;;;;NaN;;;;0 / 0;228067;2021-03-12 21:41:25:445
-4.7064;3.3919;7.1688;-3.9455;2.3459;8.666;-0.1229;1.1692;-3.4381;-0.3435;0.1936;0.4222;3.0;-21.3;5.21;-24.71;73.57;-17.36;25.7;2.0;56.545;;;;NaN;;;;0 / 0;228569;2021-03-12 21:41:25:947
-0.0208;1.8923;8.951;-0.9621;3.7936;8.9918;0.2696;-2.0946;1.3393;0.3205;-0.1945;2.0459;4.0;-1.18;9.63;-21.66;10.7;-22.76;6.11;2.0;58.211;;;;NaN;;;;0 / 0;229067;2021-03-12 21:41:26:445
-0.9982;2.8984;11.8016;-1.4817;1.9674;9.4923;2.3747;2.0075;1.3203;0.0472;-0.9263;-0.8756;3.7;-2.75;16.26;-14.77;20.92;-14.31;16.77;2.0;50.023;;;;NaN;;;;0 / 0;229568;2021-03-12 21:41:26:946
-1.4102;-1.2505;10.029;0.5452;0.2187;9.789;-3.4212;-1.6141;-1.0271;0.3798;0.0124;-3.4612;3.3;-33.29;9.27;-10.58;74.6;-0.99;1.64;2.0;59.128;;;;NaN;;;;0 / 0;230067;2021-03-12 21:41:27:445
-4.6585;-16.8834;0.241;-7.7949;-3.5303;4.7902;2.5395;-13.675;-3.9506;-3.1356;6.392;-0.4351;2.4;-5.05;23.42;2.08;10.26;12.25;16.99;2.0;50.563;;;;NaN;;;;0 / 0;230567;2021-03-12 21:41:27:945
-20.8471;1.442;10.7093;-6.4157;-1.6411;-7.233;-3.2667;-6.4148;21.5921;-2.1316;-0.3867;-2.3335;1.2;-0.22;-49.31;25.78;196.77;27.84;142.16;2.0;54.275;;;;NaN;;;;0 / 0;231069;2021-03-12 21:41:28:447
-7.1498;-12.7536;0.4854;-9.7634;0.8963;-0.2073;0.8483;-15.0731;1.339;4.8224;0.7479;3.5255;1.8;8.46;14.0;26.11;288.3;24.59;96.14;2.0;59.979;;;;NaN;;;;0 / 0;231567;2021-03-12 21:41:28:945
-10.652;-1.0014;2.6844;-9.1818;-2.133;2.7045;-8.4854;4.0974;-1.7729;-2.174;-0.4193;0.1533;1.5;9.71;28.71;13.03;331.48;5.31;72.44;2.0;64.965;;;;NaN;;;;0 / 0;232066;2021-03-12 21:41:29:444
-7.8349;-6.602;2.8808;-8.2303;-5.2027;1.1681;1.2423;-0.9993;2.106;-1.6301;-1.2105;-0.3817;0.9;10.05;14.14;31.55;285.24;27.42;85.89;2.0;62.06;;;;NaN;;;;0 / 0;232567;2021-03-12 21:41:29:945
-5.9712;-2.8795;2.7036;-4.5961;-8.5673;1.2838;-5.3363;1.6952;1.7553;0.6846;1.1516;-1.6235;1.6;15.22;13.74;33.25;279.27;59.5;67.74;2.0;60.134;;;;NaN;;;;0 / 0;233067;2021-03-12 21:41:30:445
-5.77;-7.6992;1.6065;-7.004;-6.1158;3.1163;3.0105;-1.4359;-1.4028;1.3532;1.8014;-1.4284;6.9;25.17;0.18;21.94;254.02;38.58;66.01;2.0;61.501;;;;NaN;;;;0 / 0;233567;2021-03-12 21:41:30:945
-6.3497;-7.1338;3.1731;-5.1633;-7.9561;2.4924;-0.4017;0.7448;1.1323;1.9013;3.8467;-0.2883;2.8;18.37;10.87;20.56;275.21;59.85;56.67;2.0;52.059;;;;NaN;;;;0 / 0;234067;2021-03-12 21:41:31:445
-6.1916;-6.166;2.6413;-7.2372;-6.3872;1.7314;0.4948;-0.1031;0.9764;0.2758;-0.7644;-1.3301;4.3;16.61;-0.25;19.02;254.16;33.6;75.32;2.0;56.225;;;;NaN;;;;0 / 0;234567;2021-03-12 21:41:31:945
-6.5988;-7.3159;1.9706;-4.1642;-8.6011;2.2025;-3.7651;1.564;-0.7202;-0.2621;-0.1222;1.1027;0.0;19.94;-1.8;13.69;243.73;61.29;62.13;2.0;50.69;;;;NaN;;;;0 / 0;235069;2021-03-12 21:41:32:447
-5.1759;-6.8128;0.4422;-7.6136;-5.7479;2.2729;2.2981;-1.5492;-1.3249;0.1382;-0.2758;0.9038;5.5;17.22;-7.91;15.55;236.54;35.88;73.38;2.0;49.73;;;;NaN;;;;0 / 0;235567;2021-03-12 21:41:32:945
-7.466;-6.4727;1.7502;-5.0337;-8.3951;0.5956;-2.5088;2.2869;0.8837;0.0534;0.2961;-0.2304;1.9;19.51;-3.85;15.83;227.21;57.5;82.48;2.0;49.316;;;;NaN;;;;0 / 0;236067;2021-03-12 21:41:33:445
-5.037;-6.4631;0.5812;-7.7476;-5.7523;1.7481;2.2764;-1.0331;-1.0641;0.537;0.2098;0.5089;4.3;14.23;-4.65;19.3;244.81;39.1;78.26;2.0;48.821;;;;NaN;;;;0 / 0;236568;2021-03-12 21:41:33:946
-9.9237;-9.0119;-1.7041;-4.2977;-8.6796;1.5376;-3.3653;-1.8937;-4.7888;-1.3217;-2.1694;-1.2479;3.8;18.84;0.51;14.83;245.59;51.23;70.14;2.0;63.702;;;;NaN;;;;0 / 0;237067;2021-03-12 21:41:34:445
-3.0343;-10.6983;3.1348;-8.5488;-3.8568;-2.8658;8.4467;-7.0637;3.6223;-7.0136;-4.8924;-0.9644;2.5;18.22;-11.98;-21.6;119.43;23.16;108.53;2.0;64.87;;;;NaN;;;;0 / 0;237567;2021-03-12 21:41:34:945
-9.4446;-11.3642;2.6269;-8.5666;-4.4954;-1.6048;-4.6251;-7.7012;5.1175;1.7868;0.6667;4.0394;2.7;12.93;-13.13;18.91;217.51;42.74;101.7;2.0;51.523;;;;NaN;;;;0 / 0;238068;2021-03-12 21:41:35:446
-8.2181;-10.2288;0.356;-9.7427;-0.5873;-0.9519;1.7279;-5.4494;-2.2753;-1.8934;0.275;-2.241;2.5;4.63;-4.24;25.14;259.69;3.43;95.58;2.0;44.859;;;;NaN;;;;0 / 0;238567;2021-03-12 21:41:35:945
-9.5357;-4.2018;1.0267;-4.5606;-8.2505;-2.7019;-4.8463;3.4994;2.8135;0.9563;-0.1124;0.5523;0.3;24.68;-7.62;9.3;169.23;57.28;120.64;2.0;42.2;;;;NaN;;;;0 / 0;239067;2021-03-12 21:41:36:445
-9.9046;-5.7971;2.5551;-9.4384;-2.6313;-0.4051;2.0636;-2.9015;3.0316;2.3408;1.1165;0.7536;1.8;1.59;3.27;22.89;275.21;15.56;92.46;2.0;58.743;;;;NaN;;;;0 / 0;239567;2021-03-12 21:41:36:945
-9.0566;-0.0767;5.1757;-8.1684;-0.6803;5.3838;-1.5109;-0.4378;-2.8099;1.9675;0.558;-1.452;4.3;12.95;11.12;15.34;298.87;3.24;58.33;2.0;59.282;;;;NaN;;;;0 / 0;240068;2021-03-12 21:41:37:446
-1.712;1.006;10.2733;-3.4555;0.6439;9.1551;-1.8242;1.1048;-1.4002;-1.3039;-4.8225;0.3387;16.2;4.42;23.47;-8.0;357.77;-3.76;20.68;2.0;60.819;;;;NaN;;;;0 / 0;240567;2021-03-12 21:41:37:945
-1.0461;1.2647;2.5407;-4.3941;3.6179;7.9858;3.4188;-1.4081;-4.3418;0.1817;0.6796;-0.8852;4.2;4.54;21.31;-20.29;11.08;-21.65;28.82;2.0;56.44;;;;NaN;;;;0 / 0;241066;2021-03-12 21:41:38:444
-0.2939;-0.1294;12.7119;-0.9229;-1.554;9.6387;-1.063;2.2072;2.4726;0.5433;-0.532;-0.0948;5.5;-8.76;28.13;-10.61;21.02;9.12;5.47;2.0;61.285;;;;NaN;;;;0 / 0;241567;2021-03-12 21:41:38:945
-2.2199;0.9964;8.7689;-2.3638;0.4335;9.5076;0.805;0.3817;-0.519;0.4392;-0.5558;-0.9049;3.3;-17.7;21.23;-22.2;46.92;-2.45;15.36;2.0;52.666;;;;NaN;;;;0 / 0;242068;2021-03-12 21:41:39:446
-4.3231;1.0156;10.1727;-1.3301;0.6714;9.6928;-0.9675;1.1727;-0.058;-0.2824;0.4861;-2.184;2.4;-33.06;-3.91;-25.94;94.0;-3.93;7.81;2.0;43.953;;;;NaN;;;;0 / 0;242567;2021-03-12 21:41:39:945
-4.1985;-1.3224;9.3055;-1.6171;0.4387;9.6624;-2.2972;-0.9859;-0.3587;-0.7171;0.2339;1.5374;2.4;-33.57;0.8;-26.72;86.6;-3.01;6.77;2.0;43.615;;;;NaN;;;;0 / 0;243067;2021-03-12 21:41:40:445
-1.9132;-1.835;9.454;-1.2161;-1.2322;9.6526;-0.0222;0.218;2.0734;-0.2589;2.0303;1.1153;3.0;-2.74;33.87;-13.27;8.14;7.22;7.18;2.0;43.553;;;;NaN;;;;0 / 0;243567;2021-03-12 21:41:40:945
-2.493;-1.1068;9.1139;-2.5014;0.1514;9.481;2.5677;-2.8799;-0.102;0.4462;-0.3196;-1.6997;2.7;3.94;31.92;-18.48;1.2;-0.83;14.63;2.0;52.425;;;;NaN;;;;0 / 0;244069;2021-03-12 21:41:41:447
-1.8414;1.7438;8.9079;0.2699;0.833;9.7675;-1.9161;1.2401;-0.7981;-0.0751;-0.7176;-1.1084;1.8;-30.65;19.37;-24.05;55.24;-4.87;-1.58;2.0;54.42;;;;NaN;;;;0 / 0;244568;2021-03-12 21:41:41:946
-4.8932;-0.5606;10.0242;-1.2686;1.2721;9.6407;-2.9498;-1.1459;0.5017;-0.4831;1.1587;0.4583;2.1;-31.59;7.65;-31.49;72.36;-7.45;7.5;2.0;57.928;;;;NaN;;;;0 / 0;245067;2021-03-12 21:41:42:445
-0.5574;1.8875;8.5725;0.4567;-0.8926;9.7553;-0.1234;0.1601;2.5971;-0.0839;1.0397;1.4704;3.0;6.05;33.58;-14.89;348.37;5.22;-2.68;2.0;50.556;;;;NaN;;;;0 / 0;245567;2021-03-12 21:41:42:945
1.9818;1.3893;6.9292;-1.6107;3.1283;9.1537;3.8443;-5.6867;-0.5228;0.4953;0.0587;-1.6144;3.0;15.1;21.76;-23.75;332.76;-14.95;1.9;2.0;55.177;;;;NaN;;;;0 / 0;246068;2021-03-12 21:41:43:446
-2.0282;2.0984;8.9318;-0.232;1.7738;9.6421;-2.1408;0.5501;-0.0266;0.1135;-0.105;-1.2136;2.7;-18.47;24.87;-26.98;31.34;-9.58;-0.5;2.0;60.062;;;;NaN;;;;0 / 0;246567;2021-03-12 21:41:43:945
-1.8222;-2.2566;14.13;-1.5523;-0.1263;9.6822;-0.126;0.4736;2.5134;0.2324;0.3316;1.1734;2.7;-11.9;30.65;-21.77;25.87;1.91;7.3;2.0;49.578;;;;NaN;;;;0 / 0;247067;2021-03-12 21:41:44:445
-0.7922;2.4912;9.2528;-1.0399;2.5042;9.4243;1.9234;-1.5832;-1.521;-0.7641;-0.3798;-0.1966;3.1;-11.86;28.41;-24.83;23.91;-14.79;6.3;2.0;53.277;;;;NaN;;;;0 / 0;247567;2021-03-12 21:41:44:945
2.9544;-2.1656;10.302;0.5841;-1.5538;9.6651;-2.4457;2.2884;1.2851;1.0587;-0.4229;0.826;3.3;-15.33;34.15;-13.79;23.2;7.2;-5.35;2.0;42.929;;;;NaN;;;;0 / 0;248067;2021-03-12 21:41:45:445
-0.8592;3.0757;10.6087;-1.5558;1.4293;9.5764;-1.0351;1.0566;-0.2779;-0.3091;-0.1037;0.2;2.7;-11.7;27.98;-26.45;27.2;-8.38;9.23;2.0;48.142;;;;NaN;;;;0 / 0;248567;2021-03-12 21:41:45:945
1.0811;-2.0746;11.5381;-1.7971;-0.6159;9.6209;-0.7161;-1.8271;1.9115;-0.0716;-2.1453;2.1917;2.7;1.03;34.03;-18.14;4.05;3.6;10.58;2.0;52.137;;;;NaN;;;;0 / 0;249067;2021-03-12 21:41:46:445
-0.5526;-0.2732;9.7798;-1.107;-0.19;9.7421;1.689;1.3195;0.0181;-0.0553;-0.5164;-0.7034;3.0;-7.4;32.53;-20.1;15.77;1.11;6.48;2.0;49.873;;;;NaN;;;;0 / 0;249569;2021-03-12 21:41:46:947
-2.4977;-0.1774;10.5655;-1.14;-0.7243;9.7132;-0.0846;0.58;-1.1434;0.1815;-0.7231;0.3237;2.7;-17.47;30.15;-22.16;31.73;1.05;3.5;2.0;39.924;;;;NaN;;;;0 / 0;250067;2021-03-12 21:41:47:445
-1.8078;0.2299;8.7594;-1.9726;0.1468;9.6051;-0.8874;-0.1384;0.5399;-0.4057;0.143;1.2024;2.4;-21.96;24.59;-26.47;48.0;1.09;13.14;2.0;47.567;;;;NaN;;;;0 / 0;250571;2021-03-12 21:41:47:949
0.9853;-0.8098;10.4218;-2.3225;-0.6676;9.5042;1.0299;-0.9526;0.5855;-0.5394;-0.8144;1.5296;3.0;5.52;33.62;-14.53;356.05;3.9;13.73;2.0;52.111;;;;NaN;;;;0 / 0;251068;2021-03-12 21:41:48:446
-2.0282;-1.9356;11.3848;-0.9549;-0.6795;9.7364;-3.625;1.5514;0.9553;1.5972;-1.5088;0.3283;2.7;4.11;32.68;-17.62;355.98;3.97;5.6;2.0;50.812;;;;NaN;;;;0 / 0;251567;2021-03-12 21:41:48:945
1.335;-0.7954;7.346;-1.4893;4.2639;8.7047;0.6539;-1.9914;-4.3671;-1.3874;-1.7782;-2.1189;2.1;-22.58;9.95;-34.59;46.06;-30.65;5.43;2.0;53.66;;;;NaN;;;;0 / 0;252067;2021-03-12 21:41:49:445
-1.1754;2.5583;14.4654;2.8168;-0.4033;9.3847;-7.1734;4.1092;5.3173;0.9141;-0.7122;0.3973;2.4;-44.45;-8.93;-10.1;104.16;2.36;-16.71;2.0;42.248;;;;NaN;;;;0 / 0;252567;2021-03-12 21:41:49:945
1.4883;3.1428;5.2476;3.2243;8.8859;2.6105;-2.2767;-5.9988;1.9487;2.1617;3.1575;1.1315;6.1;-12.09;-5.55;-39.3;321.04;-64.97;-51.0;2.0;47.731;;;;NaN;;;;0 / 0;253068;2021-03-12 21:41:50:446
4.1042;6.2952;8.606;0.9634;4.6889;8.559;4.7558;0.7256;1.5946;-0.318;-0.003;-0.6321;2.4;26.91;3.14;-22.92;292.4;-28.56;-6.42;2.0;51.624;;;;NaN;;;;0 / 0;253567;2021-03-12 21:41:50:945
-1.597;4.7142;9.5211;0.5232;4.5989;8.6456;-1.4553;-1.6277;0.7308;-0.2794;-0.552;-2.1515;2.7;5.08;19.8;-32.68;345.89;-29.03;-5.85;2.0;54.288;;;;NaN;;;;0 / 0;254067;2021-03-12 21:41:51:445
0.2091;3.368;8.424;-0.29;4.0712;8.9169;1.1655;-0.1373;-0.8744;-0.6769;-0.3886;-1.111;2.1;-22.81;16.45;-31.44;40.47;-26.9;1.64;2.0;58.525;;;;NaN;;;;0 / 0;254566;2021-03-12 21:41:51:944
-0.4281;2.6589;10.2445;0.6753;2.882;9.3493;-1.5119;0.0894;1.1652;0.3455;-0.0831;2.5281;3.1;-7.74;27.24;-28.76;14.79;-15.56;1.79;2.0;61.235;;;;NaN;;;;0 / 0;255067;2021-03-12 21:41:52:445
-0.1214;1.8588;9.157;-1.6452;3.4072;9.0473;1.5372;-1.9897;0.3908;-0.2972;1.2011;0.6941;3.0;20.68;20.74;-19.0;327.88;-20.33;10.31;2.0;53.971;;;;NaN;;;;0 / 0;255568;2021-03-12 21:41:52:946
-1.003;2.3187;12.5107;-0.1536;4.2422;8.8403;-0.3973;-1.9824;3.3027;0.9747;-1.1921;-3.4457;2.4;-0.56;22.53;-32.22;3.98;-24.69;2.47;2.0;49.898;;;;NaN;;;;0 / 0;256067;2021-03-12 21:41:53:445
-4.3902;6.1371;7.4658;-1.6407;4.0316;8.7877;-2.7467;2.4965;-0.7566;-0.3587;0.5531;-0.9928;2.1;-35.52;-8.64;-29.84;84.41;-27.98;7.29;2.0;56.61;;;;NaN;;;;0 / 0;256567;2021-03-12 21:41:53:945
-4.3902;1.9163;9.4732;-4.1048;2.3595;8.588;-2.2703;-0.9372;0.3228;-1.4075;-0.6406;1.9971;2.1;-21.45;11.23;-37.67;65.53;-17.56;30.87;2.0;54.34;;;;NaN;;;;0 / 0;257067;2021-03-12 21:41:54:445
-5.2957;-0.3115;9.8996;-1.0183;1.4367;9.6472;0.5354;0.2371;0.4301;-0.2186;-0.0068;1.4041;3.0;2.62;31.21;-21.58;358.86;-8.42;6.03;2.0;51.362;;;;NaN;;;;0 / 0;257567;2021-03-12 21:41:54:945
-0.4185;0.6563;7.8778;-2.552;2.1892;9.2122;2.9718;-2.2632;-1.3615;-0.08;0.1942;-1.6345;3.3;8.66;27.91;-23.16;355.58;-12.9;15.48;2.0;61.658;;;;NaN;;;;0 / 0;258068;2021-03-12 21:41:55:446
-2.3349;2.6301;9.0133;-0.1866;1.8096;9.6364;-2.1181;0.9114;-0.7448;-0.0364;0.4248;-0.4697;2.7;-10.87;28.58;-26.45;17.21;-10.69;-1.45;2.0;55.016;;;;NaN;;;;0 / 0;258567;2021-03-12 21:41:55:945
-3.3218;3.3871;9.8373;-0.9505;2.997;9.289;-1.2342;-0.0874;-0.0328;0.156;0.3374;-0.8664;2.7;-11.32;23.0;-32.05;24.41;-17.79;5.84;2.0;64.71;;;;NaN;;;;0 / 0;259067;2021-03-12 21:41:56:445
-0.8161;3.0949;10.5081;-1.2454;2.6926;9.3472;1.2641;0.6909;0.144;-0.3048;-0.8804;0.8075;2.7;-4.84;27.06;-28.12;14.53;-15.94;7.59;2.0;68.602;;;;NaN;;;;0 / 0;259567;2021-03-12 21:41:56:945
-2.5696;2.5295;9.569;-1.4571;2.1966;9.4457;-0.7075;0.5758;0.3683;-0.1064;0.1292;-0.4866;2.7;-9.72;26.31;-28.64;22.49;-13.69;6.4;2.0;64.489;;;;NaN;;;;0 / 0;260067;2021-03-12 21:41:57:445
-1.5443;1.4516;10.1391;-1.442;1.4212;9.5954;-0.1457;-0.0218;0.1599;-0.3464;-0.0049;0.3784;2.7;-6.45;28.73;-26.08;17.65;-10.95;10.27;2.0;53.664;;;;NaN;;;;0 / 0;260567;2021-03-12 21:41:57:945
-1.7264;1.0587;9.9858;-1.4263;0.9767;9.6531;0.9713;0.3974;-0.0839;-0.1898;0.0377;-0.1751;2.7;-3.07;31.39;-22.27;10.62;-5.72;8.4;2.0;54.165;;;;NaN;;;;0 / 0;261066;2021-03-12 21:41:58:444
-2.9385;0.479;9.0037;-1.96;0.4317;9.5991;0.3207;0.0583;-0.3089;0.0366;0.0456;0.1365;2.7;-2.77;32.45;-20.44;11.95;-2.52;11.54;2.0;56.15;;;;NaN;;;;0 / 0;261568;2021-03-12 21:41:58:946
-2.1528;-0.3211;9.363;-2.209;0.1785;9.553;-0.0705;-0.4316;-0.6938;-0.199;-0.6876;0.2215;2.7;-3.21;33.12;-20.34;12.56;-1.04;13.02;2.0;48.771;;;;NaN;;;;0 / 0;262068;2021-03-12 21:41:59:446
-1.9707;-1.1451;9.684;-1.4334;-2.3616;9.4095;-0.5765;1.0217;1.0087;-0.7108;-0.8851;0.1845;2.7;-5.21;37.1;-13.92;13.37;9.99;13.57;2.0;60.193;;;;NaN;;;;0 / 0;262567;2021-03-12 21:41:59:945
-1.5252;-3.2148;11.2602;-0.3917;-0.6013;9.7804;-1.1968;0.016;-1.9252;0.6561;-0.166;1.6483;3.1;8.94;32.86;-14.26;344.57;7.74;2.05;2.0;65.161;;;;NaN;;;;0 / 0;263067;2021-03-12 21:42:00:445
-1.324;1.739;9.157;-1.5054;0.0415;9.6903;0.6185;1.0132;-1.1341;-0.5984;0.2722;-1.1011;3.0;10.33;31.55;-14.56;346.42;-3.24;7.56;2.0;65.936;;;;NaN;;;;0 / 0;263567;2021-03-12 21:42:00:945
-1.2377;0.0957;8.4767;-1.7154;0.4351;9.6457;-0.0197;-0.7233;-1.3022;0.1194;-0.5295;0.4101;3.0;8.06;31.32;-18.1;351.55;-2.54;10.08;2.0;68.086;;;;NaN;;;;0 / 0;264070;2021-03-12 21:42:01:448
-3.7051;-0.1678;10.8434;1.306;-2.0454;9.5016;-2.4986;1.9694;1.4615;-0.9091;-1.336;0.3578;4.2;8.86;34.33;-12.98;345.68;6.43;3.28;2.0;66.006;;;;NaN;;;;0 / 0;264567;2021-03-12 21:42:01:945
3.3424;-2.1464;7.9018;-0.7439;1.8713;9.5977;2.9577;-5.4104;0.4981;1.7185;0.8409;0.0809;4.3;22.08;19.47;-17.98;306.63;3.79;-7.54;2.0;58.722;;;;NaN;;;;0 / 0;265067;2021-03-12 21:42:02:445
0.4918;-6.6356;10.9776;-1.7787;4.2509;8.6566;4.1198;-8.4089;1.5154;1.8324;-2.1791;-4.9932;2.4;-35.85;-8.04;-29.22;87.27;-25.69;11.61;2.0;49.567;;;;NaN;;;;0 / 0;265567;2021-03-12 21:42:02:945
-6.4167;4.5705;19.7881;2.4085;0.1479;9.5051;-10.7063;4.5887;8.4941;-2.062;-1.3251;-0.1808;2.7;-36.38;-29.51;-10.84;132.69;-0.86;-14.22;2.0;59.634;;;;NaN;;;;0 / 0;266067;2021-03-12 21:42:03:445
-0.7586;2.8218;7.3077;1.4054;8.7829;4.13;-3.2501;-5.6375;3.3073;0.785;2.9342;3.3199;3.0;-18.32;-0.23;-38.8;44.28;-56.93;14.48;2.0;59.578;;;;NaN;;;;0 / 0;266568;2021-03-12 21:42:03:946
6.2649;4.6471;12.0459;-1.1054;4.6855;8.5437;4.8906;-2.7421;3.9192;-1.4206;2.6304;1.6923;2.7;30.63;1.79;-14.21;289.31;-34.11;3.47;2.0;61.659;;;;NaN;;;;0 / 0;267067;2021-03-12 21:42:04:445
1.6225;5.9072;7.5089;3.1129;6.3467;6.797;-2.2109;-1.2443;0.0261;-1.3062;-1.5964;-2.463;3.4;-12.12;13.24;-36.44;351.18;-38.78;-26.35;2.0;60.587;;;;NaN;;;;0 / 0;267569;2021-03-12 21:42:04:947
-0.8209;3.7081;9.1426;-0.8572;5.7154;7.9228;-0.0186;0.7569;0.5904;-1.1062;-2.9507;-2.8187;1.5;-32.23;1.73;-30.33;54.55;-42.86;-1.22;2.0;57.086;;;;NaN;;;;0 / 0;268067;2021-03-12 21:42:05:445
2.7196;-1.1403;9.5882;0.7346;-0.292;9.7747;-1.394;-2.6675;4.7185;-0.1107;-2.7306;2.9513;2.4;-40.53;5.62;-19.19;80.82;-4.43;8.1;2.0;53.888;;;;NaN;;;;0 / 0;268567;2021-03-12 21:42:05:945
3.6299;-2.1081;9.1043;4.0743;0.4652;8.9081;-2.1689;-1.094;2.3636;0.2705;-0.1608;0.9549;4.9;-17.63;31.75;-16.87;16.83;-3.77;-22.55;2.0;49.171;;;;NaN;;;;0 / 0;269067;2021-03-12 21:42:06:445
5.1247;-0.3498;8.2467;4.2989;0.0052;8.8142;1.4645;-1.8194;-2.2655;-0.6704;-1.0121;-0.6005;5.8;-10.78;32.94;-18.25;5.58;-2.79;-22.38;2.0;50.362;;;;NaN;;;;0 / 0;269567;2021-03-12 21:42:06:945
6.2745;0.7425;6.6178;6.949;-0.2373;6.9156;-0.7482;1.3321;-0.5729;0.2795;-0.9674;0.1001;4.2;-23.42;32.53;-6.48;26.37;3.83;-33.93;2.0;55.194;;;;NaN;;;;0 / 0;270067;2021-03-12 21:42:07:445
4.3198;0.5605;6.086;6.9248;-0.0802;6.9434;-2.2575;-0.7768;1.3217;-0.8213;0.5552;-0.1705;4.6;-27.37;30.09;-3.64;28.95;-0.01;-44.13;2.0;57.68;;;;NaN;;;;0 / 0;270567;2021-03-12 21:42:07:945
7.6303;-4.6665;7.8826;5.9419;-4.775;6.1696;1.3622;0.5305;0.6662;-1.0335;-1.3738;0.8445;6.1;4.05;37.59;0.4;355.23;29.14;-43.92;2.0;61.534;;;;NaN;;;;0 / 0;271067;2021-03-12 21:42:08:445
7.7118;-6.9661;3.954;6.3286;-1.3329;7.3717;1.2624;-5.5554;-3.5095;-0.4383;1.5862;-2.1035;7.6;-2.85;33.98;-15.14;342.59;15.81;-48.34;2.0;54.555;;;;NaN;;;;0 / 0;271566;2021-03-12 21:42:08:944
4.0946;-2.0937;9.8948;6.3836;-2.4025;7.0462;-0.9911;-0.5596;2.2902;-1.3711;-0.0553;-1.2048;3.3;-31.36;27.96;7.21;49.88;14.18;-42.18;2.0;53.58;;;;NaN;;;;0 / 0;272067;2021-03-12 21:42:09:445
6.5284;-3.0807;8.6971;7.3484;-3.6982;5.3381;-1.4086;1.4379;2.484;0.3654;-0.8045;1.0962;2.4;-23.33;31.95;15.26;44.68;22.16;-54.0;2.0;56.411;;;;NaN;;;;0 / 0;272568;2021-03-12 21:42:09:946
7.2806;-3.3969;7.6335;6.6952;-3.1892;6.4167;0.4806;0.3109;-1.4764;0.3507;-0.4156;0.9731;7.9;0.35;36.91;-9.17;348.85;18.98;-46.22;2.0;60.263;;;;NaN;;;;0 / 0;273067;2021-03-12 21:42:10:445
11.2236;-3.0088;5.2763;7.8194;-2.0846;5.5391;0.5365;-0.6673;1.3872;2.7131;-1.4732;0.2277;15.6;3.64;27.56;-24.74;315.24;19.8;-50.38;2.0;53.3;;;;NaN;;;;0 / 0;273567;2021-03-12 21:42:10:945
7.9513;2.1894;3.0629;8.5894;2.9537;3.697;-0.9579;-0.915;-0.6245;-0.4235;-1.8436;-0.7243;15.0;-23.83;23.36;-18.1;347.08;-17.53;-66.71;2.0;59.515;;;;NaN;;;;0 / 0;274066;2021-03-12 21:42:11:444
7.9513;0.6802;10.623;6.9725;-0.2566;6.8912;1.938;0.3975;1.2054;-1.5525;1.1594;-1.3724;5.5;-30.61;23.5;2.9;45.55;1.5;-45.34;2.0;54.201;;;;NaN;;;;0 / 0;274567;2021-03-12 21:42:11:945
4.4491;0.6563;8.4863;4.6489;0.1636;8.6331;1.133;-0.0145;-0.001;-0.2473;0.0772;-0.4946;3.7;-35.38;14.5;-2.25;64.41;-0.96;-28.3;2.0;54.962;;;;NaN;;;;0 / 0;275067;2021-03-12 21:42:12:445
4.5689;0.8767;9.5211;3.7005;0.226;9.0789;1.585;0.6619;0.328;-0.7696;0.4045;-1.8193;3.0;-37.42;8.9;-5.91;72.09;-3.26;-23.85;2.0;55.337;;;;NaN;;;;0 / 0;275568;2021-03-12 21:42:12:946
-0.1741;-1.9308;12.0076;2.3107;-0.1749;9.5289;-0.2322;-0.5929;0.4919;-3.0772;1.6659;-1.9765;2.7;-34.37;-14.18;-17.82;116.65;1.02;-13.63;2.0;60.168;;;;NaN;;;;0 / 0;276067;2021-03-12 21:42:13:445
-5.1567;-1.5524;16.4536;-7.9411;-2.1169;5.3505;3.3483;-2.266;8.4381;-2.9111;4.3258;2.0493;3.3;2.56;-0.3;-36.45;99.82;12.47;56.03;2.0;57.055;;;;NaN;;;;0 / 0;276567;2021-03-12 21:42:13:945
3.2945;-0.5846;-13.4515;-1.4091;2.3748;-9.4098;3.3441;-4.7482;-6.1403;1.4528;1.1941;0.8761;0.6;23.75;-28.64;-1.44;136.62;-21.83;160.43;2.0;58.897;;;;NaN;;;;0 / 0;277068;2021-03-12 21:42:14:446
9.5467;-4.906;7.0202;-5.2835;6.9787;-4.4218;13.515;-7.6341;3.2175;-2.2877;-3.419;2.0207;3.4;-10.59;-33.25;-14.71;183.84;-24.0;151.56;2.0;54.883;;;;NaN;;;;0 / 0;277566;2021-03-12 21:42:14:944
10.9696;-3.6891;15.9075;2.1951;-7.125;6.3707;10.1756;5.0914;10.6644;-2.939;0.4998;3.5682;2.1;-6.39;28.08;15.45;22.77;18.3;-28.93;2.0;65.756;;;;NaN;;;;0 / 0;278067;2021-03-12 21:42:15:445
8.6891;-15.6186;31.6649;0.8298;6.7321;7.0824;6.1305;-19.3638;23.6965;6.1769;0.9622;-3.4309;5.5;-26.07;1.55;-29.65;42.96;-43.35;-6.68;2.0;67.417;;;;NaN;;;;0 / 0;278566;2021-03-12 21:42:15:944
10.548;-18.2824;2.9096;0.2421;-8.4308;-5.0033;7.2195;-1.0924;11.0385;6.5826;1.1645;0.2307;1.5;12.8;-29.56;22.23;175.64;-2.12;154.39;2.0;65.188;;;;NaN;;;;0 / 0;279067;2021-03-12 21:42:16:445
0.2906;-10.2623;0.3273;0.4408;-8.7991;-4.3072;1.1581;-1.8047;6.4999;-2.9489;-0.1819;2.8169;2.1;19.22;-8.59;33.33;144.92;63.8;-174.16;2.0;52.887;;;;NaN;;;;0 / 0;279567;2021-03-12 21:42:16:945
14.3856;-17.8847;54.2112;-1.368;1.0998;9.6483;14.1195;-27.4544;34.9943;-12.4046;-3.3403;2.5121;4.3;-8.23;32.47;-13.12;165.97;-70.76;144.79;2.0;65.222;;;;NaN;;;;0 / 0;280067;2021-03-12 21:42:17:445
14.376;-1.8446;12.204;-4.7406;-3.579;7.8031;16.6603;3.4142;-2.1453;0.4763;-3.6538;1.1671;9.7;41.58;-3.42;-0.08;253.33;21.4;31.28;2.0;59.568;;;;NaN;;;;0 / 0;280567;2021-03-12 21:42:17:945
3.9844;0.5844;4.093;2.9547;9.328;-0.6539;5.6579;-9.9507;18.156;7.2513;-4.0066;-3.1263;3.3;-18.59;-14.57;-29.1;282.28;-72.03;-102.48;2.0;64.779;;;;NaN;;;;0 / 0;281067;2021-03-12 21:42:18:445
-0.5143;-16.5768;-3.0408;-1.7132;-8.3284;-4.886;-2.0468;-6.6549;-1.3447;3.8573;2.7463;-3.8107;2.7;15.05;6.88;35.18;174.85;58.13;160.68;2.0;49.351;;;;NaN;;;;0 / 0;281568;2021-03-12 21:42:18:946
2.2549;-3.6029;-0.2812;-6.9763;0.7153;-6.8549;9.8616;-6.0098;5.2404;-3.4631;-2.1091;0.8964;4.0;2.5;-37.74;0.93;178.35;24.67;143.66;2.0;49.784;;;;NaN;;;;0 / 0;282068;2021-03-12 21:42:19:446
13.2645;-22.187;27.7986;1.6146;-8.3465;4.8888;6.6643;-15.6793;23.7516;-3.8799;-4.0912;8.0;2.8;8.45;25.88;22.03;358.81;58.33;-18.28;2.0;68.573;;;;NaN;;;;0 / 0;282567;2021-03-12 21:42:19:945
10.0402;-3.5262;6.5028;0.0279;0.0484;9.8065;5.3579;-5.4751;-2.7329;-0.6116;-2.1439;2.2727;3.6;33.76;-19.96;-10.9;238.97;-5.61;15.22;2.0;52.87;;;;NaN;;;;0 / 0;283067;2021-03-12 21:42:20:445
3.97;-2.1704;12.8652;2.1515;7.673;5.7154;1.0933;-8.6732;6.7438;1.8123;-2.3122;-4.69;8.8;-22.88;11.32;-27.04;10.18;-32.03;-32.29;2.0;65.607;;;;NaN;;;;0 / 0;283567;2021-03-12 21:42:20:945
2.4465;-9.927;-1.0094;-6.836;5.765;-4.0255;9.5462;-5.2646;6.4956;3.8517;-0.6005;-4.0536;4.3;9.89;-36.29;7.09;182.5;-36.01;120.49;2.0;65.976;;;;NaN;;;;0 / 0;284066;2021-03-12 21:42:21:444
-0.4712;-7.2919;3.5133;-3.2132;-7.8423;-4.934;-2.0424;-6.3928;7.851;-0.8127;-0.8512;6.392;4.3;18.32;-31.18;13.29;167.21;53.1;146.93;2.0;59.821;;;;NaN;;;;0 / 0;284567;2021-03-12 21:42:21:945
26.6217;-40.4406;46.2007;2.6062;-5.0044;8.0208;23.6543;-33.5343;36.9519;-11.1222;-1.7029;3.9168;4.6;-18.86;29.98;-6.01;43.91;-53.7;8.02;2.0;62.803;;;;NaN;;;;0 / 0;285066;2021-03-12 21:42:22:444
7.2471;-1.8494;8.539;0.3101;-9.0806;3.6901;7.4916;6.1646;5.1124;1.9058;-1.762;-1.2651;15.0;34.95;16.43;15.76;238.62;74.31;62.59;2.0;59.14;;;;NaN;;;;0 / 0;285567;2021-03-12 21:42:22:945
4.3102;-5.2893;2.4401;0.5318;5.2917;8.2392;3.0768;-9.8108;-6.3248;1.4252;-0.0658;-2.6455;7.9;-28.6;9.39;-20.9;44.27;-28.23;-18.03;2.0;63.32;;;;NaN;;;;0 / 0;286067;2021-03-12 21:42:23:445
19.8377;-17.6548;8.6396;5.2576;-1.472;8.1463;3.171;-8.44;-5.2364;-1.7387;-1.7021;5.7231;3.9;-8.47;29.23;15.58;27.14;8.63;-32.84;2.0;66.61;;;;NaN;;;;0 / 0;286567;2021-03-12 21:42:23:945
13.2645;-11.4984;21.2973;-0.4589;-9.6377;1.7532;18.4184;9.0243;7.334;3.7119;0.7009;-2.4184;2.1;4.42;29.51;17.4;338.46;79.35;14.67;2.0;64.345;;;;NaN;;;;0 / 0;287067;2021-03-12 21:42:24:445
4.3342;-4.6713;12.9946;-6.1172;7.6351;-0.6751;11.0374;-12.3293;13.8488;6.4281;2.168;-3.9983;9.1;-19.03;-31.69;-13.35;126.59;-48.31;17.8;2.0;69.334;;;;NaN;;;;0 / 0;287567;2021-03-12 21:42:24:945
2.4944;-7.6752;1.0363;-6.0964;1.1074;-7.6012;5.1448;-11.5203;8.1705;-6.283;-3.0442;2.5361;1.2;8.77;-35.61;11.36;170.45;49.74;163.89;2.0;55.411;;;;NaN;;;;0 / 0;288066;2021-03-12 21:42:25:444
10.1887;-9.9844;16.2285;1.1922;-4.4115;8.6768;15.412;-17.6151;22.4627;-2.6291;-4.0762;-0.6311;2.8;-4.99;34.53;20.64;10.97;26.73;-7.82;2.0;60.291;;;;NaN;;;;0 / 0;288567;2021-03-12 21:42:25:945
15.6791;-9.1412;18.5664;2.5068;-7.5166;5.7782;11.5617;6.1647;5.8164;3.0299;3.6797;-2.6963;12.6;23.87;33.75;6.16;322.63;50.93;-10.61;2.0;53.449;;;;NaN;;;;0 / 0;289067;2021-03-12 21:42:26:445
-3.1397;-4.0053;2.694;0.8004;8.6468;4.5567;0.6442;-12.9193;-3.0349;1.4154;-2.0196;-2.1449;12.0;-35.12;-9.96;-18.7;61.08;-51.43;-16.16;2.0;62.483;;;;NaN;;;;0 / 0;289567;2021-03-12 21:42:26:945
4.6887;-6.0367;8.2467;2.6844;-2.4653;9.1042;2.5106;-4.8953;0.4774;3.9104;-2.6144;5.5589;5.8;7.65;33.19;-10.69;337.12;27.34;-16.24;2.0;61.566;;;;NaN;;;;0 / 0;290067;2021-03-12 21:42:27:445
14.4718;-16.1073;32.9058;-0.1413;-7.7404;6.0197;17.5259;13.6202;14.4388;5.9656;0.8653;-5.9416;10.3;-4.05;33.9;-3.74;12.95;52.12;1.34;2.0;57.566;;;;NaN;;;;0 / 0;290567;2021-03-12 21:42:27:945
-7.5235;-4.3455;1.1848;-1.1739;9.7235;0.4953;-4.4344;-14.5164;-0.2712;-1.6114;0.7875;0.8151;15.6;-32.73;-20.06;4.78;41.25;-74.04;-64.82;2.0;61.078;;;;NaN;;;;0 / 0;291067;2021-03-12 21:42:28:445
37.6265;-11.9871;1.9131;0.5405;-5.6031;8.0302;13.3303;-6.5513;10.6687;1.9971;-3.4691;8.2327;10.6;34.93;15.37;-10.28;282.6;34.84;-3.85;2.0;53.879;;;;NaN;;;;0 / 0;291566;2021-03-12 21:42:28:944
21.1983;-16.0402;15.9266;3.3301;-3.9029;8.3575;13.5756;-10.7983;8.1884;0.23;0.9053;-7.0956;7.9;14.13;31.1;-10.47;328.67;24.85;-5.8;2.0;44.949;;;;NaN;;;;0 / 0;292067;2021-03-12 21:42:29:445
-0.2556;4.3022;10.8434;3.1428;9.2485;0.8704;-5.2668;-9.0261;13.9206;-3.1858;-3.2213;-2.3075;2.4;-3.56;-22.06;35.51;109.61;-70.58;-74.52;2.0;66.601;;;;NaN;;;;0 / 0;292566;2021-03-12 21:42:29:944
13.4322;-17.0128;28.1867;-3.1139;4.4673;8.1558;13.2547;-18.3199;18.1017;-3.8747;6.1612;7.5257;5.1;-31.32;-18.76;-17.05;105.69;-36.6;13.08;2.0;56.647;;;;NaN;;;;0 / 0;293067;2021-03-12 21:42:30:445
26.89;3.0997;12.2232;-1.5306;1.8401;9.5101;19.3268;-11.6401;4.9867;-1.8367;2.1605;6.8325;3.9;29.96;-26.78;-1.17;229.19;-10.81;9.14;2.0;56.101;;;;NaN;;;;0 / 0;293567;2021-03-12 21:42:30:945
14.9078;-9.2754;13.8426;-0.4759;-1.0386;9.7399;15.4251;-6.8611;3.7637;1.928;1.784;-4.6129;5.5;37.77;4.2;-8.4;274.47;6.08;2.8;2.0;55.563;;;;NaN;;;;0 / 0;294067;2021-03-12 21:42:31:445
15.8612;-19.7484;30.5822;-3.4485;2.3159;8.8834;20.0906;-17.3102;14.085;5.9658;-3.0114;-5.2155;3.0;-25.4;-22.29;-26.74;117.98;-13.66;21.22;2.0;64.656;;;;NaN;;;;0 / 0;294567;2021-03-12 21:42:31:945
-3.9159;-15.0772;15.093;-4.8183;1.0054;8.482;-7.6985;-17.3481;1.3053;-7.266;2.2164;3.0864;3.6;38.27;-6.05;8.74;270.51;-28.57;30.77;2.0;67.411;;;;NaN;;;;0 / 0;295067;2021-03-12 21:42:32:445
14.3137;-15.6474;22.7202;-7.9927;-2.0598;5.2957;22.2082;-14.3568;17.3533;-5.6753;-1.4071;5.0307;2.4;1.54;33.55;-12.13;17.28;19.32;58.29;2.0;67.369;;;;NaN;;;;0 / 0;295568;2021-03-12 21:42:32:946
15.2575;-3.5262;20.9332;-1.8087;-6.3615;7.2409;14.4043;5.9106;13.992;-5.2864;-2.8141;-0.7289;2.2;26.5;7.61;-38.63;214.83;24.59;23.49;2.0;63.014;;;;NaN;;;;0 / 0;296067;2021-03-12 21:42:33:445
8.4592;-0.6996;13.373;-1.0761;-6.3054;7.4333;6.6096;-3.6114;0.9164;-3.4973;6.0204;-1.3916;11.2;27.19;25.98;15.94;313.58;40.01;8.24;2.0;54.028;;;;NaN;;;;0 / 0;296567;2021-03-12 21:42:33:945
11.9901;-30.0681;19.2947;3.4391;-0.4178;9.1743;13.2939;-12.5243;-2.0539;9.8218;-5.1113;-2.7755;4.9;-14.79;31.48;17.1;18.55;64.62;13.71;2.0;57.199;;;;NaN;;;;0 / 0;297067;2021-03-12 21:42:34:445
6.1404;-13.2183;11.5669;6.0923;1.3128;7.5717;3.4028;-15.4982;6.9633;1.1602;2.633;7.3295;7.0;-24.83;29.88;-4.61;26.8;-7.69;-38.82;2.0;69.991;;;;NaN;;;;0 / 0;297566;2021-03-12 21:42:34:944
8.2627;-4.1491;7.8922;1.0536;-0.406;9.7414;5.3935;-2.4923;-1.6576;-0.0788;4.88;-4.1352;4.5;31.61;5.78;-19.04;278.99;2.37;-6.17;2.0;61.796;;;;NaN;;;;0 / 0;298067;2021-03-12 21:42:35:445
3.3568;-4.839;9.1474;5.4592;-6.0128;5.4967;-0.3382;1.3922;4.274;-3.4223;3.3286;-4.1243;5.5;17.86;28.84;-23.98;290.92;46.22;-26.09;2.0;63.143;;;;NaN;;;;0 / 0;298566;2021-03-12 21:42:35:944
6.6865;-3.67;8.927;3.902;-2.1009;8.7482;4.1143;-3.2541;-3.3336;0.0344;0.5179;-2.3538;11.1;19.46;20.61;-20.06;300.97;22.63;-23.58;2.0;66.851;;;;NaN;;;;0 / 0;299067;2021-03-12 21:42:36:445
2.3795;-1.7727;8.5533;4.435;-2.3271;8.4312;-1.1283;-0.2661;1.8332;-1.4287;-0.6707;-0.4612;15.3;-0.28;35.83;-7.21;354.68;9.0;-27.39;2.0;64.511;;;;NaN;;;;0 / 0;299567;2021-03-12 21:42:36:945
3.8934;-3.4256;8.3138;4.3386;-2.7793;8.344;-0.19;-1.1385;0.5863;1.8567;-0.5843;0.3265;14.7;-1.5;32.49;-9.43;355.17;16.46;-27.47;2.0;50.033;;;;NaN;;;;0 / 0;300067;2021-03-12 21:42:37:445
7.0698;-3.737;8.3904;3.2602;-4.254;8.2125;4.3837;1.4717;1.5813;-1.0992;1.5486;0.9337;17.5;10.04;26.03;-7.06;331.86;25.71;-21.65;2.0;63.528;;;;NaN;;;;0 / 0;300567;2021-03-12 21:42:37:945
5.139;-4.8006;8.8073;5.1846;-4.3414;7.1023;0.7886;2.8238;4.1958;0.0041;0.5663;-2.5431;34.9;3.86;27.44;-2.93;352.69;35.38;-31.12;2.0;62.691;;;;NaN;;;;0 / 0;301067;2021-03-12 21:42:38:445
5.666;-3.5119;8.1653;4.1242;-3.7701;8.059;-0.2817;-0.9382;-3.2758;-1.4124;0.5147;0.1567;18.9;-2.24;28.61;3.93;7.61;5.64;-33.74;2.0;56.564;;;;NaN;;;;0 / 0;301567;2021-03-12 21:42:38:945
5.4888;-4.5946;7.9784;5.5217;-3.4255;7.3449;-0.3622;-0.8567;1.0116;-0.3226;-0.276;0.1518;12.9;0.46;28.25;9.0;10.65;20.44;-36.93;2.0;53.278;;;;NaN;;;;0 / 0;302067;2021-03-12 21:42:39:445
4.9857;-4.1347;6.1866;4.0194;-7.0862;5.4589;1.4399;2.7235;1.8964;-1.8059;0.0856;-0.4977;1.8;-5.9;18.15;21.26;38.04;46.27;-36.36;2.0;46.288;;;;NaN;;;;0 / 0;302567;2021-03-12 21:42:39:945
2.7771;-6.0079;9.0181;5.6972;-1.2549;7.8827;-0.6636;-2.7601;-0.3257;-1.5234;2.0493;-3.2167;3.3;-14.08;26.26;10.2;35.39;22.02;-34.56;2.0;49.903;;;;NaN;;;;0 / 0;303068;2021-03-12 21:42:40:446
5.6373;-5.1312;7.0921;4.3243;-2.3144;8.492;1.3236;-3.6383;-4.4426;-1.31;-0.2023;1.1394;7.2;-7.41;31.93;0.66;12.03;1.81;-23.94;2.0;54.71;;;;NaN;;;;0 / 0;303567;2021-03-12 21:42:40:945
6.4949;-4.3982;7.7245;4.143;-7.4104;4.9084;2.3816;2.341;2.0716;0.4273;0.1507;0.3838;4.0;5.05;26.22;14.2;10.71;49.08;-40.17;2.0;62.694;;;;NaN;;;;0 / 0;304067;2021-03-12 21:42:41:445
3.7592;-3.761;5.1039;5.4933;-1.4302;7.9968;-1.6992;-2.2882;-2.5912;0.1724;-0.4036;-0.3734;7.0;-7.3;31.96;4.02;14.28;8.39;-34.49;2.0;53.539;;;;NaN;;;;0 / 0;304567;2021-03-12 21:42:41:945
6.0637;-4.3646;6.6609;4.8472;-4.6645;7.1357;0.0681;1.4654;1.4815;0.9128;-0.2643;0.4077;3.0;-0.23;33.14;10.71;13.4;32.01;-35.76;2.0;50.592;;;;NaN;;;;0 / 0;305067;2021-03-12 21:42:42:445
4.5833;-4.0053;6.1387;5.6993;-2.8016;7.4726;-0.8656;-1.7684;-1.0993;0.288;-0.1692;-0.5947;3.0;-10.3;33.8;8.01;21.33;16.51;-36.0;2.0;54.705;;;;NaN;;;;0 / 0;305566;2021-03-12 21:42:42:944
5.4552;-4.5084;6.0285;4.9761;-4.0815;7.3994;0.7521;-0.2254;-1.1489;0.0934;0.2334;0.0671;3.1;-5.7;32.93;11.17;18.93;24.59;-33.92;2.0;55.876;;;;NaN;;;;0 / 0;306066;2021-03-12 21:42:43:444
4.7749;-4.5419;6.5028;5.2685;-2.8821;7.7529;-0.5952;-1.9857;-0.7042;0.8071;-0.2022;0.0838;5.5;-7.03;32.36;5.0;15.68;17.09;-34.2;2.0;58.863;;;;NaN;;;;0 / 0;306568;2021-03-12 21:42:43:946
5.7619;-3.3585;7.5041;2.8069;-5.6887;7.4786;0.8163;3.5821;2.301;0.6045;0.3739;-0.5106;2.7;-6.61;27.39;13.48;25.4;38.63;-28.78;2.0;58.009;;;;NaN;;;;0 / 0;307067;2021-03-12 21:42:44:445
5.5319;-2.477;8.654;4.3642;-3.9458;7.8457;0.9829;-0.3468;1.9425;-0.1434;0.0917;-0.7402;3.3;-19.28;25.33;11.85;43.68;22.89;-29.22;2.0;65.991;;;;NaN;;;;0 / 0;307567;2021-03-12 21:42:44:945
5.2636;-4.2497;6.498;5.6836;-1.4683;7.8556;-0.8365;-2.5966;-1.4034;0.4987;-0.225;-0.1174;3.3;-25.69;25.7;6.98;46.11;8.67;-35.36;2.0;65.332;;;;NaN;;;;0 / 0;308067;2021-03-12 21:42:45:445
6.4757;-3.9622;7.3843;4.9622;-4.9044;6.8915;1.5773;0.6222;0.5557;-0.5286;0.0215;0.8837;2.4;-4.33;31.2;16.51;22.03;30.01;-35.76;2.0;63.249;;;;NaN;;;;0 / 0;308568;2021-03-12 21:42:45:946
5.3163;-4.1299;7.5616;5.1308;-3.905;7.3889;0.1499;-0.1563;0.184;0.61;0.4177;-1.1557;2.7;-11.84;31.79;12.56;31.13;34.79;-34.31;2.0;53.192;;;;NaN;;;;0 / 0;309067;2021-03-12 21:42:46:445
4.8324;-3.9957;7.1735;5.5478;-2.6791;7.6299;-0.3209;-1.5776;-0.8079;-0.3294;-0.2517;0.6581;3.3;-20.56;30.68;7.49;35.64;8.72;-34.04;2.0;53.492;;;;NaN;;;;0 / 0;309567;2021-03-12 21:42:46:945
0.5014;-5.1695;13.8665;5.61;-3.4921;7.2459;-0.743;-1.2179;6.1899;1.9158;-1.0718;-0.6787;3.6;-8.71;33.76;7.76;21.85;31.23;-34.81;2.0;48.133;;;;NaN;;;;0 / 0;310066;2021-03-12 21:42:47:444
4.6983;-9.9126;8.3042;4.6571;5.0995;6.9625;-0.6736;-14.5877;2.5834;5.1779;1.3659;5.8085;4.3;9.32;-20.1;-19.4;237.55;-31.33;-33.78;2.0;55.735;;;;NaN;;;;0 / 0;310567;2021-03-12 21:42:47:945
11.9949;-2.18;12.5442;3.6411;1.1621;9.0312;11.2887;-0.8909;2.5571;-0.0723;-1.7198;-3.9663;3.7;8.0;-27.85;-13.15;201.76;-6.93;-12.2;2.0;58.349;;;;NaN;;;;0 / 0;311066;2021-03-12 21:42:48:444
11.4871;-14.7323;21.3596;0.941;8.2741;5.1793;10.3121;-22.7642;15.6045;-2.1513;-4.7925;-4.8578;6.7;-13.58;8.29;-32.5;346.81;-46.99;-34.73;2.0;65.032;;;;NaN;;;;0 / 0;311567;2021-03-12 21:42:48:945
13.528;-14.44;21.005;3.9651;6.5636;6.1129;7.9993;-21.2043;15.1866;-0.8395;-6.4321;-4.2886;3.0;25.58;-10.38;-19.18;267.7;-35.17;-14.08;2.0;67.302;;;;NaN;;;;0 / 0;312068;2021-03-12 21:42:49:446
15.0563;-22.393;29.691;-5.1588;-1.5653;8.1919;7.4194;-16.8008;12.8156;-6.4069;3.4498;7.3804;6.4;31.28;-14.43;12.49;245.55;9.18;32.2;2.0;61.319;;;;NaN;;;;0 / 0;312567;2021-03-12 21:42:49:945
8.876;-6.7266;8.1557;7.0208;1.2073;6.7395;15.5598;-10.2214;-8.1859;-2.3596;0.8037;4.5722;10.3;-27.5;22.92;-10.54;24.0;-33.01;-38.81;2.0;57.963;;;;NaN;;;;0 / 0;313067;2021-03-12 21:42:50:445
9.6809;0.7856;7.0059;-2.5255;-7.612;5.6436;12.2181;7.3081;1.0714;0.7737;0.801;0.4587;6.7;21.89;21.19;14.41;302.1;50.91;24.11;2.0;55.504;;;;NaN;;;;0 / 0;313568;2021-03-12 21:42:50:946
4.3629;-4.6186;7.0921;3.1905;2.1932;9.01;1.7879;-7.6166;-2.3012;-0.0504;0.0898;-3.0585;5.5;-32.49;13.88;-7.96;57.2;-12.92;-19.5;2.0;53.14;;;;NaN;;;;0 / 0;314067;2021-03-12 21:42:51:445
11.0367;-6.8607;9.8709;4.876;-4.3432;7.3166;-0.993;-4.7264;2.313;0.5102;-0.0046;5.25;3.4;4.46;29.21;11.93;6.05;26.29;-33.68;2.0;55.807;;;;NaN;;;;0 / 0;314566;2021-03-12 21:42:51:944
4.7126;-5.0737;8.9654;3.4377;-3.7402;8.3883;5.2116;1.7625;-0.6953;1.2343;-1.8956;-2.1797;6.9;1.92;33.04;1.22;357.3;22.42;-22.29;2.0;60.488;;;;NaN;;;;0 / 0;315067;2021-03-12 21:42:52:445
2.7436;-2.5345;7.1783;4.2193;-0.8859;8.8081;-2.0243;-2.1153;-1.0772;-0.5502;0.2711;1.0186;5.8;-19.54;29.8;-0.3;30.41;1.0;-28.94;2.0;62.876;;;;NaN;;;;0 / 0;315567;2021-03-12 21:42:52:945
4.9953;-3.1717;8.0168;4.2829;-3.4505;8.1192;0.2171;0.5067;0.1392;0.3275;-0.7839;0.6157;3.7;-5.86;33.29;6.96;14.96;20.6;-27.81;2.0;57.494;;;;NaN;;;;0 / 0;316067;2021-03-12 21:42:53:445
5.2061;-3.4927;7.6047;5.0387;-4.313;7.2236;0.3699;0.4389;0.1832;-0.7386;0.4575;-0.2844;3.3;-5.55;29.07;13.05;22.92;26.09;-34.9;2.0;53.424;;;;NaN;;;;0 / 0;316567;2021-03-12 21:42:53:945
5.896;-4.1778;7.0681;5.0111;-3.9718;7.4353;1.4464;0.2687;-0.5767;0.3683;-0.0757;-0.4177;3.0;-8.29;28.92;13.98;26.11;25.84;-33.19;2.0;56.982;;;;NaN;;;;0 / 0;317066;2021-03-12 21:42:54:444
4.9857;-3.6604;8.4911;5.8543;-2.7849;7.3581;-0.9311;-1.1659;1.0908;0.8553;-0.4328;0.4934;4.3;-12.42;32.17;8.13;25.35;16.5;-38.51;2.0;54.346;;;;NaN;;;;0 / 0;317568;2021-03-12 21:42:54:946
4.5737;-2.4818;9.1378;4.5667;-4.0525;7.6742;0.1175;1.8027;1.8641;-0.7908;0.4374;0.0811;5.2;-2.0;33.34;7.86;10.14;24.41;-30.76;2.0;52.696;;;;NaN;;;;0 / 0;318067;2021-03-12 21:42:55:445
